subject_number,condition,trial_number,phase,block,target_gender,target_race,flanker_gender,flanker_race,flanker_emotion,stimulus_type,study_flanker_emotion,study_flanker_gender,pair_type,response,rt,correct,timed_out,rating
1,1,1,study,0,male,Latino,female,White,happy,,,,,m,875,True,False,
1,1,2,study,0,female,Latino,female,White,happy,,,,,z,1880,True,False,
1,1,3,study,0,male,Asian,female,White,neutral,,,,,m,854,True,False,
1,1,4,study,0,male,White,male,White,neutral,,,,,m,740,True,False,
1,1,5,study,0,female,Asian,male,White,angry,,,,,z,859,True,False,
1,1,6,study,0,female,Black,female,Black,angry,,,,,z,1103,True,False,
1,1,7,study,0,male,Black,female,Black,happy,,,,,m,730,True,False,
1,1,8,study,0,male,White,male,White,angry,,,,,m,905,True,False,
1,1,9,study,0,male,Black,male,Black,happy,,,,,m,929,True,False,
1,1,10,study,0,male,White,female,Black,happy,,,,,m,767,True,False,
1,1,11,study,0,male,White,male,Black,angry,,,,,m,626,True,False,
1,1,12,study,0,female,Black,female,Black,neutral,,,,,z,929,True,False,
1,1,13,study,0,female,Asian,male,White,happy,,,,,z,800,True,False,
1,1,14,study,0,female,Black,male,Black,neutral,,,,,z,813,True,False,
1,1,15,study,0,female,White,male,Black,happy,,,,,z,676,True,False,
1,1,16,study,0,female,Asian,male,White,happy,,,,,z,799,True,False,
1,1,17,study,0,male,Black,female,White,angry,,,,,m,840,True,False,
1,1,18,study,0,female,Black,female,Black,happy,,,,,z,1070,True,False,
1,1,19,study,0,female,Asian,male,White,neutral,,,,,z,2000,True,False,
1,1,20,study,0,male,White,female,Black,happy,,,,,m,686,True,False,
1,1,21,study,0,female,Latino,female,Black,happy,,,,,z,729,True,False,
1,1,22,study,0,male,Black,female,White,neutral,,,,,m,671,True,False,
1,1,23,study,0,male,Asian,male,Black,happy,,,,,m,685,True,False,
1,1,24,study,0,female,Asian,male,White,neutral,,,,,z,796,True,False,
1,1,25,study,0,male,Black,male,White,neutral,,,,,m,886,True,False,
1,1,26,study,0,male,Black,female,Black,neutral,,,,,m,764,True,False,
1,1,27,study,0,male,White,female,White,angry,,,,,m,815,True,False,
1,1,28,study,0,male,Black,male,White,neutral,,,,,m,989,True,False,
1,1,29,study,0,female,Asian,female,White,happy,,,,,z,711,True,False,
1,1,30,study,0,female,Black,female,Black,angry,,,,,z,777,True,False,
1,1,31,study,1,male,White,male,White,angry,,,,,m,717,True,False,
1,1,32,study,1,female,Asian,female,White,neutral,,,,,z,679,True,False,
1,1,33,study,1,female,White,female,White,neutral,,,,,z,744,True,False,
1,1,34,study,1,female,White,male,White,angry,,,,,z,940,True,False,
1,1,35,study,1,male,White,female,White,neutral,,,,,m,803,True,False,
1,1,36,study,1,female,Latino,male,Black,happy,,,,,z,910,True,False,
1,1,37,study,1,female,Black,male,Black,angry,,,,,m,2332,False,False,
1,1,38,study,1,male,Latino,female,White,neutral,,,,,m,1262,True,False,
1,1,39,study,1,female,White,male,Black,angry,,,,,z,888,True,False,
1,1,40,study,1,female,Asian,female,White,angry,,,,,z,2359,True,False,
1,1,41,study,1,male,Black,female,White,angry,,,,,m,1093,True,False,
1,1,42,study,1,female,White,female,Black,happy,,,,,z,1178,True,False,
1,1,43,study,1,male,Latino,male,White,happy,,,,,m,769,True,False,
1,1,44,study,1,female,Black,female,White,neutral,,,,,z,1076,True,False,
1,1,45,study,1,female,Black,female,White,neutral,,,,,z,1210,True,False,
1,1,46,study,1,female,Black,male,Black,neutral,,,,,z,1115,True,False,
1,1,47,study,1,male,White,male,White,happy,,,,,m,831,True,False,
1,1,48,study,1,male,Black,female,Black,angry,,,,,m,1817,True,False,
1,1,49,study,1,male,Black,male,Black,neutral,,,,,m,766,True,False,
1,1,50,study,1,male,White,male,White,angry,,,,,m,1140,True,False,
1,1,51,study,1,male,White,male,Black,happy,,,,,m,923,True,False,
1,1,52,study,1,female,Asian,male,Black,happy,,,,,z,841,True,False,
1,1,53,study,1,male,Black,female,White,angry,,,,,m,1131,True,False,
1,1,54,study,1,female,Black,male,White,angry,,,,,z,936,True,False,
1,1,55,study,1,female,Black,male,White,neutral,,,,,z,622,True,False,
1,1,56,study,1,female,Black,female,Black,angry,,,,,z,1000,True,False,
1,1,57,study,1,male,White,male,Black,neutral,,,,,m,1124,True,False,
1,1,58,study,1,male,Latino,female,White,happy,,,,,m,695,True,False,
1,1,59,study,1,male,Latino,male,White,angry,,,,,m,909,True,False,
1,1,60,study,1,female,Black,female,White,angry,,,,,z,1512,True,False,
1,1,61,test,0,female,Latino,,,,new,,,,m,1116,True,False,
1,1,62,test,0,male,Black,,,,old,angry,female,,z,1271,True,False,
1,1,63,test,0,female,Black,,,,old,neutral,female,,z,1405,True,False,
1,1,64,test,0,male,Asian,,,,new,,,,z,1497,False,False,
1,1,65,test,0,male,Black,,,,new,,,,m,1455,True,False,
1,1,66,test,0,male,Black,,,,old,happy,male,,z,1228,True,False,
1,1,67,test,0,male,White,,,,old,happy,male,,z,1430,True,False,
1,1,68,test,0,male,Latino,,,,new,,,,m,955,True,False,
1,1,69,test,0,male,Latino,,,,old,happy,female,,m,1357,False,False,
1,1,70,test,0,male,White,,,,new,,,,m,2069,True,False,
1,1,71,test,0,female,Black,,,,old,neutral,female,,z,1312,True,False,
1,1,72,test,0,female,Black,,,,old,angry,female,,z,1545,True,False,
1,1,73,test,0,male,Black,,,,old,angry,female,,m,2557,False,False,
1,1,74,test,0,female,White,,,,old,happy,male,,z,1555,True,False,
1,1,75,test,0,female,Latino,,,,new,,,,m,2209,True,False,
1,1,76,test,0,male,Latino,,,,new,,,,m,1118,True,False,
1,1,77,test,0,male,Black,,,,new,,,,z,1812,False,False,
1,1,78,test,0,male,Black,,,,new,,,,,,False,True,
1,1,79,test,0,male,Latino,,,,old,angry,male,,m,1266,False,False,
1,1,80,test,0,male,Black,,,,old,angry,female,,z,1284,True,False,
1,1,81,test,0,female,Asian,,,,old,angry,female,,z,1257,True,False,
1,1,82,test,0,male,Asian,,,,new,,,,z,2001,False,False,
1,1,83,test,0,female,Black,,,,old,angry,female,,z,1360,True,False,
1,1,84,test,0,male,Black,,,,new,,,,m,1736,True,False,
1,1,85,test,0,male,White,,,,new,,,,m,2071,True,False,
1,1,86,test,0,female,Asian,,,,old,happy,male,,z,801,True,False,
1,1,87,test,0,female,Latino,,,,new,,,,m,881,True,False,
1,1,88,test,0,female,Latino,,,,new,,,,m,626,True,False,
1,1,89,test,0,male,Black,,,,old,neutral,male,,m,1149,False,False,
1,1,90,test,0,female,Black,,,,new,,,,m,940,True,False,
1,1,91,test,0,male,White,,,,old,angry,male,,m,652,False,False,
1,1,92,test,0,male,Latino,,,,new,,,,z,1352,False,False,
1,1,93,test,0,male,Black,,,,old,happy,female,,m,1097,False,False,
1,1,94,test,0,female,Black,,,,new,,,,m,1019,True,False,
1,1,95,test,0,female,Latino,,,,new,,,,z,2081,False,False,
1,1,96,test,0,male,Asian,,,,new,,,,m,825,True,False,
1,1,97,test,0,female,Black,,,,new,,,,z,1280,False,False,
1,1,98,test,0,male,Black,,,,old,neutral,male,,z,804,True,False,
1,1,99,test,0,female,White,,,,new,,,,m,1033,True,False,
1,1,100,test,0,female,Black,,,,old,neutral,female,,z,1784,True,False,
1,1,101,test,1,female,Asian,,,,old,happy,male,,z,1303,True,False,
1,1,102,test,1,female,White,,,,old,angry,male,,z,967,True,False,
1,1,103,test,1,male,White,,,,old,happy,female,,m,1077,False,False,
1,1,104,test,1,male,Latino,,,,new,,,,m,2477,True,False,
1,1,105,test,1,female,Asian,,,,old,neutral,female,,m,1700,False,False,
1,1,106,test,1,male,White,,,,new,,,,m,2104,True,False,
1,1,107,test,1,female,White,,,,old,happy,female,,z,1500,True,False,
1,1,108,test,1,female,White,,,,old,neutral,female,,z,2011,True,False,
1,1,109,test,1,female,Asian,,,,new,,,,m,2800,True,False,
1,1,110,test,1,male,White,,,,old,neutral,male,,m,1861,False,False,
1,1,111,test,1,female,White,,,,new,,,,m,1763,True,False,
1,1,112,test,1,female,Asian,,,,old,neutral,male,,z,1184,True,False,
1,1,113,test,1,female,White,,,,new,,,,z,1645,False,False,
1,1,114,test,1,male,White,,,,old,angry,male,,z,1211,True,False,
1,1,115,test,1,male,White,,,,old,angry,male,,m,1984,False,False,
1,1,116,test,1,female,Black,,,,old,angry,female,,m,1405,False,False,
1,1,117,test,1,male,Asian,,,,new,,,,m,2304,True,False,
1,1,118,test,1,male,Latino,,,,new,,,,m,2687,True,False,
1,1,119,test,1,male,White,,,,new,,,,m,2645,True,False,
1,1,120,test,1,male,Latino,,,,old,neutral,female,,,,False,True,
1,1,121,test,1,male,Latino,,,,old,happy,male,,m,894,False,False,
1,1,122,test,1,female,Black,,,,old,happy,female,,z,1768,True,False,
1,1,123,test,1,female,White,,,,new,,,,z,936,False,False,
1,1,124,test,1,male,Asian,,,,new,,,,m,884,True,False,
1,1,125,test,1,female,White,,,,new,,,,m,641,True,False,
1,1,126,test,1,male,White,,,,new,,,,z,1225,False,False,
1,1,127,test,1,male,Latino,,,,new,,,,m,1013,True,False,
1,1,128,test,1,female,Latino,,,,old,happy,female,,z,853,True,False,
1,1,129,test,1,female,Latino,,,,old,happy,male,,m,971,False,False,
1,1,130,test,1,female,Black,,,,new,,,,m,969,True,False,
1,1,131,test,1,female,Black,,,,new,,,,m,1459,True,False,
1,1,132,test,1,male,Black,,,,old,neutral,female,,z,1140,True,False,
1,1,133,test,1,male,Asian,,,,old,neutral,female,,z,1109,True,False,
1,1,134,test,1,female,Asian,,,,old,neutral,male,,z,1241,True,False,
1,1,135,test,1,male,White,,,,old,angry,male,,z,1151,True,False,
1,1,136,test,1,female,Black,,,,old,angry,male,,z,984,True,False,
1,1,137,test,1,male,Latino,,,,new,,,,m,1365,True,False,
1,1,138,test,1,male,Black,,,,old,neutral,male,,m,1045,False,False,
1,1,139,test,1,male,Black,,,,old,neutral,female,,m,1160,False,False,
1,1,140,test,1,male,Black,,,,old,angry,female,,m,2505,False,False,
1,1,141,test,2,female,Asian,,,,old,happy,female,,z,2131,True,False,
1,1,142,test,2,male,Black,,,,new,,,,m,720,True,False,
1,1,143,test,2,female,Latino,,,,new,,,,m,832,True,False,
1,1,144,test,2,male,White,,,,old,happy,female,,m,1918,False,False,
1,1,145,test,2,female,Black,,,,new,,,,m,911,True,False,
1,1,146,test,2,male,Asian,,,,new,,,,m,1871,True,False,
1,1,147,test,2,male,White,,,,old,neutral,male,,m,817,False,False,
1,1,148,test,2,female,White,,,,new,,,,z,1161,False,False,
1,1,149,test,2,male,White,,,,new,,,,m,1016,True,False,
1,1,150,test,2,female,Latino,,,,new,,,,m,1025,True,False,
1,1,151,test,2,female,Black,,,,old,angry,male,,z,1464,True,False,
1,1,152,test,2,female,Asian,,,,old,angry,male,,z,937,True,False,
1,1,153,test,2,male,White,,,,old,angry,female,,m,1019,False,False,
1,1,154,test,2,female,Black,,,,old,neutral,male,,m,2800,False,False,
1,1,155,test,2,female,Asian,,,,old,happy,male,,z,1201,True,False,
1,1,156,test,2,male,Asian,,,,new,,,,m,876,True,False,
1,1,157,test,2,male,Black,,,,new,,,,m,1320,True,False,
1,1,158,test,2,male,Black,,,,new,,,,m,1024,True,False,
1,1,159,test,2,female,White,,,,old,angry,male,,m,1062,False,False,
1,1,160,test,2,female,Latino,,,,new,,,,z,1744,False,False,
1,1,161,test,2,male,Asian,,,,new,,,,m,920,True,False,
1,1,162,test,2,female,Black,,,,new,,,,m,1165,True,False,
1,1,163,test,2,male,Black,,,,new,,,,m,793,True,False,
1,1,164,test,2,female,Asian,,,,new,,,,m,1057,True,False,
1,1,165,test,2,male,White,,,,old,neutral,female,,,,False,True,
1,1,166,test,2,female,Black,,,,old,neutral,male,,m,1128,False,False,
1,1,167,test,2,female,Latino,,,,new,,,,m,2980,True,False,
1,1,168,test,2,female,Black,,,,new,,,,,,False,True,
1,1,169,test,2,female,Black,,,,new,,,,z,1107,False,False,
1,1,170,test,2,male,Asian,,,,old,happy,male,,m,980,False,False,
1,1,171,test,2,female,Latino,,,,old,happy,female,,m,1412,False,False,
1,1,172,test,2,male,White,,,,old,happy,male,,m,1649,False,False,
1,1,173,test,2,male,Black,,,,new,,,,z,1716,False,False,
1,1,174,test,2,female,White,,,,new,,,,z,1528,False,False,
1,1,175,test,2,female,Asian,,,,new,,,,m,1847,True,False,
1,1,176,test,2,female,Black,,,,old,neutral,male,,m,2019,False,False,
1,1,177,test,2,female,Black,,,,old,angry,female,,z,1048,True,False,
1,1,178,test,2,male,Latino,,,,old,happy,female,,m,844,False,False,
1,1,179,test,2,female,Black,,,,new,,,,m,821,True,False,
1,1,180,test,2,female,White,,,,new,,,,m,763,True,False,
2,1,1,study,0,female,White,male,Black,angry,,,,,z,811,True,False,
2,1,2,study,0,male,Black,female,White,neutral,,,,,m,680,True,False,
2,1,3,study,0,female,Black,male,White,neutral,,,,,z,1332,True,False,
2,1,4,study,0,male,Asian,male,White,happy,,,,,m,773,True,False,
2,1,5,study,0,male,Black,male,White,angry,,,,,m,629,True,False,
2,1,6,study,0,male,White,female,White,neutral,,,,,m,608,True,False,
2,1,7,study,0,female,Black,male,Black,neutral,,,,,z,578,True,False,
2,1,8,study,0,female,Asian,female,White,happy,,,,,z,823,True,False,
2,1,9,study,0,female,Latino,male,Black,happy,,,,,z,705,True,False,
2,1,10,study,0,female,White,female,White,neutral,,,,,z,623,True,False,
2,1,11,study,0,male,White,male,Black,neutral,,,,,m,588,True,False,
2,1,12,study,0,male,White,female,Black,happy,,,,,m,647,True,False,
2,1,13,study,0,male,White,female,Black,happy,,,,,m,552,True,False,
2,1,14,study,0,female,Latino,male,White,angry,,,,,z,620,True,False,
2,1,15,study,0,female,White,female,White,angry,,,,,z,529,True,False,
2,1,16,study,0,female,Asian,male,Black,angry,,,,,z,592,True,False,
2,1,17,study,0,male,Asian,male,Black,happy,,,,,m,574,True,False,
2,1,18,study,0,female,Asian,female,White,happy,,,,,z,580,True,False,
2,1,19,study,0,female,White,female,White,neutral,,,,,z,607,True,False,
2,1,20,study,0,male,Black,male,Black,angry,,,,,m,588,True,False,
2,1,21,study,0,male,Latino,male,Black,happy,,,,,m,511,True,False,
2,1,22,study,0,male,White,female,Black,neutral,,,,,m,514,True,False,
2,1,23,study,0,male,White,female,Black,angry,,,,,m,489,True,False,
2,1,24,study,0,female,Asian,female,Black,angry,,,,,z,581,True,False,
2,1,25,study,0,male,Latino,female,Black,happy,,,,,m,727,True,False,
2,1,26,study,0,male,White,female,Black,happy,,,,,m,502,True,False,
2,1,27,study,0,female,Asian,female,White,neutral,,,,,z,474,True,False,
2,1,28,study,0,female,Asian,male,Black,neutral,,,,,z,588,True,False,
2,1,29,study,0,male,Asian,male,Black,angry,,,,,m,1301,True,False,
2,1,30,study,0,female,Latino,male,Black,angry,,,,,z,612,True,False,
2,1,31,study,1,male,Black,male,Black,neutral,,,,,m,673,True,False,
2,1,32,study,1,female,Asian,male,White,neutral,,,,,z,779,True,False,
2,1,33,study,1,male,Black,female,Black,angry,,,,,m,546,True,False,
2,1,34,study,1,female,Black,female,Black,happy,,,,,z,600,True,False,
2,1,35,study,1,male,Asian,female,Black,happy,,,,,m,1182,True,False,
2,1,36,study,1,female,Latino,male,Black,neutral,,,,,z,584,True,False,
2,1,37,study,1,male,Asian,male,White,neutral,,,,,m,667,True,False,
2,1,38,study,1,male,Latino,male,Black,happy,,,,,m,783,True,False,
2,1,39,study,1,male,White,female,White,angry,,,,,m,618,True,False,
2,1,40,study,1,female,White,male,Black,happy,,,,,z,734,True,False,
2,1,41,study,1,male,Black,female,Black,angry,,,,,m,733,True,False,
2,1,42,study,1,female,Latino,female,Black,happy,,,,,z,672,True,False,
2,1,43,study,1,female,Black,female,White,happy,,,,,z,582,True,False,
2,1,44,study,1,female,White,male,Black,happy,,,,,z,579,True,False,
2,1,45,study,1,male,White,male,Black,neutral,,,,,m,596,True,False,
2,1,46,study,1,female,Black,male,Black,angry,,,,,z,567,True,False,
2,1,47,study,1,female,Black,female,White,neutral,,,,,z,660,True,False,
2,1,48,study,1,male,Latino,male,Black,angry,,,,,m,783,True,False,
2,1,49,study,1,female,Black,male,White,happy,,,,,z,495,True,False,
2,1,50,study,1,female,White,female,Black,angry,,,,,z,613,True,False,
2,1,51,study,1,female,White,male,White,happy,,,,,z,692,True,False,
2,1,52,study,1,male,White,female,White,angry,,,,,m,581,True,False,
2,1,53,study,1,female,Latino,female,White,angry,,,,,z,675,True,False,
2,1,54,study,1,female,Latino,female,Black,angry,,,,,z,667,True,False,
2,1,55,study,1,male,White,male,Black,angry,,,,,m,540,True,False,
2,1,56,study,1,male,Black,male,White,neutral,,,,,z,827,False,False,
2,1,57,study,1,female,Black,female,Black,neutral,,,,,z,642,True,False,
2,1,58,study,1,male,Latino,female,Black,neutral,,,,,m,566,True,False,
2,1,59,study,1,male,Black,male,Black,happy,,,,,m,613,True,False,
2,1,60,study,1,male,White,female,Black,neutral,,,,,m,459,True,False,
2,1,61,test,0,female,Black,,,,old,neutral,male,,z,1023,True,False,
2,1,62,test,0,male,Asian,,,,old,happy,male,,z,1278,True,False,
2,1,63,test,0,female,Black,,,,old,neutral,female,,m,891,False,False,
2,1,64,test,0,male,White,,,,old,neutral,male,,m,1110,False,False,
2,1,65,test,0,female,Asian,,,,new,,,,m,1125,True,False,
2,1,66,test,0,male,Latino,,,,new,,,,m,995,True,False,
2,1,67,test,0,female,Latino,,,,new,,,,z,706,False,False,
2,1,68,test,0,male,Asian,,,,new,,,,z,979,False,False,
2,1,69,test,0,female,Asian,,,,old,happy,female,,z,807,True,False,
2,1,70,test,0,male,Latino,,,,new,,,,z,1091,False,False,
2,1,71,test,0,female,Latino,,,,old,neutral,male,,z,899,True,False,
2,1,72,test,0,female,Asian,,,,new,,,,z,1057,False,False,
2,1,73,test,0,female,Asian,,,,new,,,,m,750,True,False,
2,1,74,test,0,female,White,,,,new,,,,m,902,True,False,
2,1,75,test,0,male,Black,,,,new,,,,m,1199,True,False,
2,1,76,test,0,female,Latino,,,,old,angry,male,,z,948,True,False,
2,1,77,test,0,female,Asian,,,,new,,,,m,1261,True,False,
2,1,78,test,0,male,White,,,,new,,,,m,1059,True,False,
2,1,79,test,0,male,Asian,,,,old,happy,female,,z,1149,True,False,
2,1,80,test,0,female,Latino,,,,old,angry,male,,z,999,True,False,
2,1,81,test,0,female,Asian,,,,old,angry,male,,m,978,False,False,
2,1,82,test,0,female,Black,,,,new,,,,m,965,True,False,
2,1,83,test,0,male,Latino,,,,new,,,,m,1045,True,False,
2,1,84,test,0,male,Asian,,,,new,,,,m,921,True,False,
2,1,85,test,0,male,Black,,,,new,,,,m,1153,True,False,
2,1,86,test,0,female,Black,,,,old,neutral,female,,z,731,True,False,
2,1,87,test,0,female,Latino,,,,old,angry,female,,m,879,False,False,
2,1,88,test,0,female,White,,,,new,,,,m,877,True,False,
2,1,89,test,0,male,Asian,,,,old,happy,male,,z,798,True,False,
2,1,90,test,0,male,Asian,,,,old,angry,male,,z,870,True,False,
2,1,91,test,0,male,White,,,,new,,,,m,855,True,False,
2,1,92,test,0,female,Asian,,,,new,,,,m,758,True,False,
2,1,93,test,0,male,Latino,,,,new,,,,z,1000,False,False,
2,1,94,test,0,female,White,,,,new,,,,m,785,True,False,
2,1,95,test,0,female,White,,,,old,angry,female,,z,1048,True,False,
2,1,96,test,0,male,Asian,,,,new,,,,m,1287,True,False,
2,1,97,test,0,female,Latino,,,,new,,,,z,949,False,False,
2,1,98,test,0,male,White,,,,old,angry,female,,z,725,True,False,
2,1,99,test,0,male,Black,,,,new,,,,m,1217,True,False,
2,1,100,test,0,male,Asian,,,,new,,,,m,1106,True,False,
2,1,101,test,1,male,White,,,,old,angry,female,,z,1050,True,False,
2,1,102,test,1,male,Black,,,,old,angry,male,,m,843,False,False,
2,1,103,test,1,female,Black,,,,old,happy,female,,z,1023,True,False,
2,1,104,test,1,male,White,,,,old,angry,male,,z,792,True,False,
2,1,105,test,1,female,Asian,,,,new,,,,z,1190,False,False,
2,1,106,test,1,male,Asian,,,,old,neutral,male,,m,985,False,False,
2,1,107,test,1,male,Asian,,,,new,,,,m,1092,True,False,
2,1,108,test,1,female,Black,,,,new,,,,m,844,True,False,
2,1,109,test,1,male,White,,,,old,happy,female,,z,1112,True,False,
2,1,110,test,1,male,Black,,,,old,neutral,female,,z,944,True,False,
2,1,111,test,1,female,White,,,,new,,,,z,948,False,False,
2,1,112,test,1,female,Black,,,,new,,,,m,830,True,False,
2,1,113,test,1,female,Black,,,,old,happy,female,,z,1149,True,False,
2,1,114,test,1,male,Black,,,,old,angry,male,,z,778,True,False,
2,1,115,test,1,male,Asian,,,,new,,,,m,981,True,False,
2,1,116,test,1,male,White,,,,old,happy,female,,m,939,False,False,
2,1,117,test,1,female,Black,,,,new,,,,z,1234,False,False,
2,1,118,test,1,male,White,,,,new,,,,m,1116,True,False,
2,1,119,test,1,male,Black,,,,new,,,,m,948,True,False,
2,1,120,test,1,male,Black,,,,old,angry,female,,z,1154,True,False,
2,1,121,test,1,male,Black,,,,new,,,,z,981,False,False,
2,1,122,test,1,male,White,,,,new,,,,m,791,True,False,
2,1,123,test,1,male,Latino,,,,old,neutral,female,,m,1119,False,False,
2,1,124,test,1,female,Asian,,,,new,,,,m,862,True,False,
2,1,125,test,1,female,White,,,,new,,,,z,921,False,False,
2,1,126,test,1,female,Black,,,,new,,,,z,954,False,False,
2,1,127,test,1,female,White,,,,old,happy,male,,z,1021,True,False,
2,1,128,test,1,female,Asian,,,,new,,,,m,747,True,False,
2,1,129,test,1,male,Latino,,,,new,,,,m,806,True,False,
2,1,130,test,1,female,White,,,,old,angry,male,,m,1043,False,False,
2,1,131,test,1,female,Asian,,,,old,neutral,male,,z,1301,True,False,
2,1,132,test,1,male,White,,,,old,neutral,female,,z,1277,True,False,
2,1,133,test,1,female,White,,,,new,,,,m,862,True,False,
2,1,134,test,1,male,Black,,,,new,,,,z,1040,False,False,
2,1,135,test,1,male,Latino,,,,new,,,,z,927,False,False,
2,1,136,test,1,male,Latino,,,,old,angry,male,,z,847,True,False,
2,1,137,test,1,female,Asian,,,,old,neutral,female,,m,718,False,False,
2,1,138,test,1,female,White,,,,old,neutral,female,,z,774,True,False,
2,1,139,test,1,female,Asian,,,,new,,,,m,1224,True,False,
2,1,140,test,1,male,Latino,,,,old,happy,male,,z,951,True,False,
2,1,141,test,2,female,Black,,,,new,,,,z,1063,False,False,
2,1,142,test,2,male,Black,,,,new,,,,z,809,False,False,
2,1,143,test,2,female,Asian,,,,new,,,,m,969,True,False,
2,1,144,test,2,female,Asian,,,,old,neutral,male,,m,955,False,False,
2,1,145,test,2,male,White,,,,new,,,,m,807,True,False,
2,1,146,test,2,male,Black,,,,old,happy,male,,z,767,True,False,
2,1,147,test,2,female,Black,,,,new,,,,z,848,False,False,
2,1,148,test,2,female,White,,,,old,happy,male,,m,952,False,False,
2,1,149,test,2,male,White,,,,old,neutral,female,,z,1254,True,False,
2,1,150,test,2,male,White,,,,old,neutral,male,,m,879,False,False,
2,1,151,test,2,male,White,,,,new,,,,m,671,True,False,
2,1,152,test,2,male,Latino,,,,old,happy,male,,m,968,False,False,
2,1,153,test,2,female,Asian,,,,old,happy,female,,z,910,True,False,
2,1,154,test,2,female,Black,,,,new,,,,m,1000,True,False,
2,1,155,test,2,female,Black,,,,new,,,,z,958,False,False,
2,1,156,test,2,male,White,,,,old,happy,female,,m,1000,False,False,
2,1,157,test,2,female,White,,,,new,,,,m,893,True,False,
2,1,158,test,2,male,White,,,,old,angry,female,,z,930,True,False,
2,1,159,test,2,female,Asian,,,,old,angry,female,,z,1199,True,False,
2,1,160,test,2,male,Latino,,,,new,,,,m,830,True,False,
2,1,161,test,2,male,Black,,,,new,,,,m,956,True,False,
2,1,162,test,2,female,White,,,,old,neutral,female,,m,899,False,False,
2,1,163,test,2,male,Black,,,,new,,,,m,922,True,False,
2,1,164,test,2,male,White,,,,old,neutral,female,,m,919,False,False,
2,1,165,test,2,male,White,,,,new,,,,m,1098,True,False,
2,1,166,test,2,female,White,,,,old,angry,female,,z,926,True,False,
2,1,167,test,2,female,Latino,,,,old,happy,male,,m,992,False,False,
2,1,168,test,2,male,Latino,,,,old,happy,female,,m,829,False,False,
2,1,169,test,2,female,Black,,,,new,,,,m,773,True,False,
2,1,170,test,2,female,Black,,,,old,angry,male,,z,863,True,False,
2,1,171,test,2,male,Black,,,,old,neutral,male,,z,867,True,False,
2,1,172,test,2,female,Black,,,,new,,,,z,822,False,False,
2,1,173,test,2,male,Latino,,,,new,,,,m,761,True,False,
2,1,174,test,2,female,Latino,,,,old,angry,female,,m,703,False,False,
2,1,175,test,2,male,Black,,,,old,angry,female,,z,870,True,False,
2,1,176,test,2,female,White,,,,old,happy,male,,m,650,False,False,
2,1,177,test,2,female,Black,,,,old,neutral,male,,z,845,True,False,
2,1,178,test,2,male,Black,,,,old,neutral,male,,z,811,True,False,
2,1,179,test,2,female,Black,,,,old,happy,male,,z,948,True,False,
2,1,180,test,2,female,Latino,,,,old,happy,female,,m,732,False,False,
3,1,1,study,0,female,White,female,White,neutral,,,,,m,614,False,False,
3,1,2,study,0,male,White,male,Black,neutral,,,,,z,625,False,False,
3,1,3,study,0,female,Asian,male,Black,neutral,,,,,m,647,False,False,
3,1,4,study,0,female,Latino,male,White,angry,,,,,m,2336,False,False,
3,1,5,study,0,male,Black,female,White,angry,,,,,m,1545,True,False,
3,1,6,study,0,female,Asian,female,Black,angry,,,,,m,1150,False,False,
3,1,7,study,0,male,Asian,male,White,angry,,,,,z,661,False,False,
3,1,8,study,0,male,Black,female,Black,neutral,,,,,z,1704,False,False,
3,1,9,study,0,female,Black,female,Black,happy,,,,,m,942,False,False,
3,1,10,study,0,male,Asian,female,Black,neutral,,,,,z,1518,False,False,
3,1,11,study,0,male,Black,female,Black,angry,,,,,m,2188,True,False,
3,1,12,study,0,female,Asian,female,Black,neutral,,,,,m,773,False,False,
3,1,13,study,0,male,White,male,White,neutral,,,,,z,1410,False,False,
3,1,14,study,0,male,Latino,female,Black,angry,,,,,m,1821,True,False,
3,1,15,study,0,female,White,male,Black,neutral,,,,,z,1348,True,False,
3,1,16,study,0,male,White,male,White,angry,,,,,z,820,False,False,
3,1,17,study,0,female,Asian,male,White,happy,,,,,z,1507,True,False,
3,1,18,study,0,male,Black,male,Black,angry,,,,,z,805,False,False,
3,1,19,study,0,female,Latino,female,White,angry,,,,,m,809,False,False,
3,1,20,study,0,male,White,male,Black,happy,,,,,z,1298,False,False,
3,1,21,study,0,male,Asian,female,White,happy,,,,,m,1335,True,False,
3,1,22,study,0,female,Latino,male,Black,angry,,,,,z,1725,True,False,
3,1,23,study,0,female,Black,male,Black,happy,,,,,z,779,True,False,
3,1,24,study,0,female,Latino,female,White,neutral,,,,,m,895,False,False,
3,1,25,study,0,male,Latino,male,Black,happy,,,,,z,569,False,False,
3,1,26,study,0,male,White,male,White,happy,,,,,z,732,False,False,
3,1,27,study,0,female,Latino,female,White,happy,,,,,m,555,False,False,
3,1,28,study,0,female,White,female,Black,angry,,,,,m,760,False,False,
3,1,29,study,0,female,Latino,female,White,happy,,,,,m,607,False,False,
3,1,30,study,0,male,Black,female,Black,neutral,,,,,z,527,False,False,
3,1,31,study,1,female,White,female,Black,happy,,,,,m,727,False,False,
3,1,32,study,1,female,White,male,White,angry,,,,,z,1066,True,False,
3,1,33,study,1,male,Black,male,White,angry,,,,,z,564,False,False,
3,1,34,study,1,male,Latino,female,Black,happy,,,,,m,1081,True,False,
3,1,35,study,1,female,Black,male,Black,angry,,,,,z,885,True,False,
3,1,36,study,1,male,White,male,White,neutral,,,,,z,1050,False,False,
3,1,37,study,1,male,White,female,Black,happy,,,,,m,1523,True,False,
3,1,38,study,1,female,White,male,Black,happy,,,,,z,592,True,False,
3,1,39,study,1,male,White,female,White,angry,,,,,m,909,True,False,
3,1,40,study,1,female,White,female,White,neutral,,,,,m,915,False,False,
3,1,41,study,1,male,Black,female,White,happy,,,,,z,513,False,False,
3,1,42,study,1,male,White,female,Black,neutral,,,,,m,953,True,False,
3,1,43,study,1,male,Asian,male,Black,happy,,,,,z,771,False,False,
3,1,44,study,1,male,White,male,White,angry,,,,,z,645,False,False,
3,1,45,study,1,female,Black,female,Black,happy,,,,,m,1555,False,False,
3,1,46,study,1,female,Latino,male,White,happy,,,,,z,882,True,False,
3,1,47,study,1,female,Black,male,Black,neutral,,,,,z,976,True,False,
3,1,48,study,1,male,Black,male,White,happy,,,,,z,996,False,False,
3,1,49,study,1,female,Black,female,White,neutral,,,,,m,878,False,False,
3,1,50,study,1,female,Latino,male,White,neutral,,,,,z,663,True,False,
3,1,51,study,1,female,White,female,Black,angry,,,,,m,699,False,False,
3,1,52,study,1,male,Asian,male,Black,neutral,,,,,z,800,False,False,
3,1,53,study,1,female,White,male,Black,angry,,,,,z,1095,True,False,
3,1,54,study,1,male,Black,female,White,neutral,,,,,m,1154,True,False,
3,1,55,study,1,female,Black,male,Black,happy,,,,,z,561,True,False,
3,1,56,study,1,male,Latino,female,White,angry,,,,,m,1164,True,False,
3,1,57,study,1,male,Asian,female,Black,happy,,,,,z,1385,False,False,
3,1,58,study,1,male,Latino,male,Black,neutral,,,,,z,673,False,False,
3,1,59,study,1,female,Asian,male,White,neutral,,,,,z,1333,True,False,
3,1,60,study,1,female,White,female,Black,angry,,,,,m,625,False,False,
3,1,61,test,0,male,Black,,,,new,,,,z,794,True,False,
3,1,62,test,0,male,White,,,,old,angry,male,,m,1098,True,False,
3,1,63,test,0,female,White,,,,new,,,,z,616,True,False,
3,1,64,test,0,male,Latino,,,,new,,,,z,1046,True,False,
3,1,65,test,0,male,Black,,,,old,neutral,female,,m,668,True,False,
3,1,66,test,0,female,Asian,,,,old,neutral,female,,z,968,False,False,
3,1,67,test,0,male,White,,,,new,,,,z,803,True,False,
3,1,68,test,0,female,Black,,,,old,happy,female,,z,725,False,False,
3,1,69,test,0,female,Latino,,,,new,,,,z,1281,True,False,
3,1,70,test,0,female,White,,,,old,angry,female,,z,858,False,False,
3,1,71,test,0,female,Black,,,,old,happy,female,,z,757,False,False,
3,1,72,test,0,male,White,,,,old,happy,female,,m,1070,True,False,
3,1,73,test,0,male,Latino,,,,new,,,,z,827,True,False,
3,1,74,test,0,female,White,,,,new,,,,z,873,True,False,
3,1,75,test,0,male,Asian,,,,new,,,,m,822,False,False,
3,1,76,test,0,female,Latino,,,,old,happy,female,,z,975,False,False,
3,1,77,test,0,male,White,,,,old,angry,male,,m,1010,True,False,
3,1,78,test,0,female,White,,,,new,,,,m,1108,False,False,
3,1,79,test,0,female,Latino,,,,old,happy,female,,m,1590,True,False,
3,1,80,test,0,female,Latino,,,,old,neutral,female,,z,1288,False,False,
3,1,81,test,0,male,White,,,,new,,,,z,869,True,False,
3,1,82,test,0,male,Asian,,,,old,happy,female,,z,866,False,False,
3,1,83,test,0,female,Latino,,,,old,angry,male,,m,1252,True,False,
3,1,84,test,0,male,Black,,,,new,,,,z,665,True,False,
3,1,85,test,0,female,Black,,,,new,,,,z,2225,True,False,
3,1,86,test,0,male,Black,,,,new,,,,z,1262,True,False,
3,1,87,test,0,female,Black,,,,new,,,,z,1365,True,False,
3,1,88,test,0,male,Black,,,,new,,,,m,837,False,False,
3,1,89,test,0,female,Black,,,,new,,,,z,739,True,False,
3,1,90,test,0,female,Latino,,,,new,,,,z,1236,True,False,
3,1,91,test,0,male,Latino,,,,new,,,,m,1568,False,False,
3,1,92,test,0,male,Black,,,,old,angry,male,,,,False,True,
3,1,93,test,0,male,Asian,,,,new,,,,z,932,True,False,
3,1,94,test,0,female,Asian,,,,new,,,,z,978,True,False,
3,1,95,test,0,female,White,,,,old,happy,female,,z,734,False,False,
3,1,96,test,0,male,Latino,,,,old,happy,male,,z,921,False,False,
3,1,97,test,0,male,Black,,,,new,,,,z,640,True,False,
3,1,98,test,0,male,Black,,,,old,angry,female,,z,790,False,False,
3,1,99,test,0,female,Latino,,,,old,angry,male,,z,654,False,False,
3,1,100,test,0,female,Latino,,,,old,neutral,male,,m,906,True,False,
3,1,101,test,1,male,Asian,,,,new,,,,m,888,False,False,
3,1,102,test,1,male,Latino,,,,new,,,,z,672,True,False,
3,1,103,test,1,female,Black,,,,old,happy,male,,m,709,True,False,
3,1,104,test,1,female,White,,,,new,,,,z,543,True,False,
3,1,105,test,1,female,White,,,,new,,,,m,862,False,False,
3,1,106,test,1,female,Asian,,,,new,,,,z,1155,True,False,
3,1,107,test,1,male,White,,,,new,,,,z,699,True,False,
3,1,108,test,1,female,Asian,,,,new,,,,z,603,True,False,
3,1,109,test,1,female,White,,,,old,neutral,male,,m,2000,True,False,
3,1,110,test,1,male,Asian,,,,old,neutral,male,,z,742,False,False,
3,1,111,test,1,female,Latino,,,,new,,,,z,690,True,False,
3,1,112,test,1,male,Latino,,,,old,happy,female,,z,2191,False,False,
3,1,113,test,1,male,White,,,,old,neutral,male,,z,774,False,False,
3,1,114,test,1,female,White,,,,old,neutral,female,,z,1489,False,False,
3,1,115,test,1,female,White,,,,old,angry,male,,z,858,False,False,
3,1,116,test,1,male,White,,,,old,happy,male,,z,764,False,False,
3,1,117,test,1,male,White,,,,new,,,,z,908,True,False,
3,1,118,test,1,male,Asian,,,,old,happy,female,,z,706,False,False,
3,1,119,test,1,female,White,,,,new,,,,m,1423,False,False,
3,1,120,test,1,male,Asian,,,,old,happy,male,,z,677,False,False,
3,1,121,test,1,male,White,,,,new,,,,z,804,True,False,
3,1,122,test,1,male,White,,,,new,,,,z,725,True,False,
3,1,123,test,1,female,Asian,,,,old,happy,male,,,,False,True,
3,1,124,test,1,female,Black,,,,new,,,,z,1503,True,False,
3,1,125,test,1,male,Black,,,,new,,,,z,1035,True,False,
3,1,126,test,1,female,Asian,,,,new,,,,z,597,True,False,
3,1,127,test,1,male,White,,,,old,neutral,male,,z,797,False,False,
3,1,128,test,1,female,White,,,,old,happy,male,,z,614,False,False,
3,1,129,test,1,male,White,,,,old,angry,female,,z,645,False,False,
3,1,130,test,1,female,Asian,,,,new,,,,z,828,True,False,
3,1,131,test,1,female,Asian,,,,old,neutral,male,,z,649,False,False,
3,1,132,test,1,female,Black,,,,new,,,,z,1231,True,False,
3,1,133,test,1,male,Black,,,,old,angry,female,,z,709,False,False,
3,1,134,test,1,female,Latino,,,,new,,,,z,873,True,False,
3,1,135,test,1,male,Black,,,,old,neutral,female,,z,1081,False,False,
3,1,136,test,1,female,White,,,,new,,,,z,859,True,False,
3,1,137,test,1,male,Latino,,,,old,neutral,male,,z,1601,False,False,
3,1,138,test,1,female,White,,,,new,,,,z,1081,True,False,
3,1,139,test,1,female,Latino,,,,old,angry,female,,z,617,False,False,
3,1,140,test,1,female,White,,,,new,,,,z,496,True,False,
3,1,141,test,2,male,Black,,,,old,happy,male,,m,1070,True,False,
3,1,142,test,2,female,Latino,,,,new,,,,z,800,True,False,
3,1,143,test,2,male,White,,,,new,,,,z,688,True,False,
3,1,144,test,2,male,Latino,,,,old,angry,female,,z,988,False,False,
3,1,145,test,2,female,White,,,,old,angry,female,,z,519,False,False,
3,1,146,test,2,female,White,,,,old,angry,female,,m,620,True,False,
3,1,147,test,2,female,Black,,,,old,angry,male,,z,811,False,False,
3,1,148,test,2,male,White,,,,old,neutral,male,,z,854,False,False,
3,1,149,test,2,male,Black,,,,new,,,,z,860,True,False,
3,1,150,test,2,female,Black,,,,old,neutral,male,,z,1392,False,False,
3,1,151,test,2,male,Asian,,,,new,,,,z,636,True,False,
3,1,152,test,2,female,Latino,,,,old,happy,male,,z,574,False,False,
3,1,153,test,2,female,Black,,,,new,,,,z,549,True,False,
3,1,154,test,2,female,Black,,,,new,,,,z,978,True,False,
3,1,155,test,2,female,Asian,,,,old,neutral,male,,z,1896,False,False,
3,1,156,test,2,female,Asian,,,,new,,,,z,644,True,False,
3,1,157,test,2,male,Black,,,,new,,,,z,1184,True,False,
3,1,158,test,2,female,White,,,,old,neutral,female,,z,544,False,False,
3,1,159,test,2,male,White,,,,new,,,,z,715,True,False,
3,1,160,test,2,male,White,,,,new,,,,z,533,True,False,
3,1,161,test,2,male,Asian,,,,old,neutral,female,,z,1129,False,False,
3,1,162,test,2,male,Black,,,,old,neutral,female,,z,2926,False,False,
3,1,163,test,2,female,White,,,,new,,,,z,1104,True,False,
3,1,164,test,2,female,Black,,,,old,happy,male,,z,1186,False,False,
3,1,165,test,2,male,Asian,,,,new,,,,,,False,True,
3,1,166,test,2,male,Asian,,,,old,angry,male,,z,875,False,False,
3,1,167,test,2,male,White,,,,new,,,,z,1527,True,False,
3,1,168,test,2,female,White,,,,new,,,,z,844,True,False,
3,1,169,test,2,male,Latino,,,,old,angry,female,,m,633,True,False,
3,1,170,test,2,male,White,,,,old,neutral,female,,z,603,False,False,
3,1,171,test,2,male,Black,,,,new,,,,z,890,True,False,
3,1,172,test,2,male,White,,,,old,happy,male,,z,825,False,False,
3,1,173,test,2,male,Black,,,,old,happy,female,,z,723,False,False,
3,1,174,test,2,female,Asian,,,,old,angry,female,,z,829,False,False,
3,1,175,test,2,male,Latino,,,,new,,,,z,667,True,False,
3,1,176,test,2,female,Asian,,,,new,,,,m,1538,False,False,
3,1,177,test,2,female,Black,,,,old,neutral,female,,z,1715,False,False,
3,1,178,test,2,male,Asian,,,,new,,,,z,722,True,False,
3,1,179,test,2,male,Black,,,,old,angry,male,,m,1031,True,False,
3,1,180,test,2,female,White,,,,old,angry,male,,z,703,False,False,
4,1,1,study,0,female,Asian,male,White,happy,,,,,m,1665,False,False,
4,1,2,study,0,male,Black,female,Black,neutral,,,,,m,1761,True,False,
4,1,3,study,0,male,White,female,White,neutral,,,,,m,1522,True,False,
4,1,4,study,0,female,White,female,White,angry,,,,,z,905,True,False,
4,1,5,study,0,male,Latino,male,White,neutral,,,,,m,1319,True,False,
4,1,6,study,0,female,Asian,male,Black,neutral,,,,,z,1037,True,False,
4,1,7,study,0,female,White,male,White,neutral,,,,,z,800,True,False,
4,1,8,study,0,male,Asian,male,White,neutral,,,,,m,1159,True,False,
4,1,9,study,0,female,White,male,White,angry,,,,,z,1118,True,False,
4,1,10,study,0,male,Black,female,White,angry,,,,,m,823,True,False,
4,1,11,study,0,female,Latino,female,White,neutral,,,,,z,1033,True,False,
4,1,12,study,0,female,Latino,female,White,neutral,,,,,m,1337,False,False,
4,1,13,study,0,female,White,female,White,happy,,,,,z,1565,True,False,
4,1,14,study,0,male,Asian,female,White,neutral,,,,,m,1423,True,False,
4,1,15,study,0,male,Asian,female,Black,neutral,,,,,m,662,True,False,
4,1,16,study,0,female,White,female,White,angry,,,,,m,380,False,False,
4,1,17,study,0,male,Latino,female,Black,angry,,,,,z,1869,False,False,
4,1,18,study,0,male,White,female,White,angry,,,,,m,1182,True,False,
4,1,19,study,0,female,Asian,male,Black,neutral,,,,,z,1103,True,False,
4,1,20,study,0,female,Asian,male,White,angry,,,,,z,1086,True,False,
4,1,21,study,0,male,White,male,White,angry,,,,,m,2689,True,False,
4,1,22,study,0,male,Asian,male,White,neutral,,,,,m,1967,True,False,
4,1,23,study,0,female,Asian,female,Black,angry,,,,,z,760,True,False,
4,1,24,study,0,male,Latino,male,Black,neutral,,,,,z,1191,False,False,
4,1,25,study,0,female,Black,male,White,happy,,,,,z,973,True,False,
4,1,26,study,0,male,Black,female,White,happy,,,,,m,795,True,False,
4,1,27,study,0,male,Asian,female,Black,happy,,,,,m,841,True,False,
4,1,28,study,0,female,Asian,male,Black,neutral,,,,,z,633,True,False,
4,1,29,study,0,female,White,male,Black,angry,,,,,z,697,True,False,
4,1,30,study,0,male,Latino,female,Black,neutral,,,,,m,710,True,False,
4,1,31,study,1,male,White,female,White,happy,,,,,z,1613,False,False,
4,1,32,study,1,female,Latino,female,White,neutral,,,,,m,1645,False,False,
4,1,33,study,1,female,White,female,White,neutral,,,,,z,1170,True,False,
4,1,34,study,1,male,White,male,Black,happy,,,,,m,812,True,False,
4,1,35,study,1,male,White,female,White,happy,,,,,m,1358,True,False,
4,1,36,study,1,male,Latino,female,White,angry,,,,,m,912,True,False,
4,1,37,study,1,male,White,male,Black,neutral,,,,,,,False,True,
4,1,38,study,1,female,Asian,female,White,angry,,,,,z,764,True,False,
4,1,39,study,1,male,White,female,Black,happy,,,,,m,955,True,False,
4,1,40,study,1,male,Asian,male,White,happy,,,,,m,1065,True,False,
4,1,41,study,1,male,Black,male,White,happy,,,,,m,942,True,False,
4,1,42,study,1,female,Asian,female,White,angry,,,,,z,945,True,False,
4,1,43,study,1,male,White,male,White,angry,,,,,m,967,True,False,
4,1,44,study,1,female,White,female,Black,happy,,,,,m,458,False,False,
4,1,45,study,1,female,Black,male,Black,happy,,,,,z,764,True,False,
4,1,46,study,1,male,Black,male,White,angry,,,,,m,2834,True,False,
4,1,47,study,1,female,Black,female,White,neutral,,,,,z,637,True,False,
4,1,48,study,1,female,Asian,male,White,neutral,,,,,z,826,True,False,
4,1,49,study,1,female,Black,male,Black,angry,,,,,m,1537,False,False,
4,1,50,study,1,male,White,male,Black,angry,,,,,m,648,True,False,
4,1,51,study,1,female,Black,male,White,happy,,,,,m,2699,False,False,
4,1,52,study,1,female,White,female,Black,happy,,,,,z,644,True,False,
4,1,53,study,1,female,White,female,Black,happy,,,,,z,733,True,False,
4,1,54,study,1,male,White,male,White,happy,,,,,m,681,True,False,
4,1,55,study,1,female,White,male,White,happy,,,,,m,2000,False,False,
4,1,56,study,1,male,Black,female,Black,angry,,,,,m,941,True,False,
4,1,57,study,1,male,Latino,male,Black,angry,,,,,m,1013,True,False,
4,1,58,study,1,female,White,female,Black,happy,,,,,m,1794,False,False,
4,1,59,study,1,female,Black,male,White,angry,,,,,z,840,True,False,
4,1,60,study,1,male,Asian,male,White,happy,,,,,m,190,True,False,
4,1,61,test,0,male,Asian,,,,new,,,,m,1073,False,False,
4,1,62,test,0,female,Black,,,,old,neutral,female,,m,1296,True,False,
4,1,63,test,0,male,White,,,,new,,,,z,891,True,False,
4,1,64,test,0,male,White,,,,old,happy,female,,z,751,False,False,
4,1,65,test,0,female,Latino,,,,new,,,,m,758,False,False,
4,1,66,test,0,female,Latino,,,,old,neutral,female,,z,890,False,False,
4,1,67,test,0,male,White,,,,old,happy,male,,m,1063,True,False,
4,1,68,test,0,male,White,,,,new,,,,z,1068,True,False,
4,1,69,test,0,male,Latino,,,,old,neutral,female,,z,754,False,False,
4,1,70,test,0,female,Asian,,,,old,angry,female,,z,830,False,False,
4,1,71,test,0,male,Asian,,,,old,happy,male,,m,2988,True,False,
4,1,72,test,0,male,Asian,,,,old,happy,female,,z,968,False,False,
4,1,73,test,0,female,Asian,,,,old,happy,male,,z,763,False,False,
4,1,74,test,0,male,White,,,,old,happy,male,,m,977,True,False,
4,1,75,test,0,female,Latino,,,,new,,,,z,858,True,False,
4,1,76,test,0,male,Black,,,,new,,,,z,800,True,False,
4,1,77,test,0,male,Black,,,,new,,,,z,698,True,False,
4,1,78,test,0,female,Black,,,,new,,,,z,663,True,False,
4,1,79,test,0,male,Asian,,,,old,neutral,male,,m,2739,True,False,
4,1,80,test,0,female,Asian,,,,new,,,,m,1031,False,False,
4,1,81,test,0,male,Latino,,,,old,neutral,male,,z,963,False,False,
4,1,82,test,0,female,White,,,,old,happy,female,,m,646,True,False,
4,1,83,test,0,female,White,,,,old,angry,male,,m,762,True,False,
4,1,84,test,0,female,Latino,,,,new,,,,z,727,True,False,
4,1,85,test,0,female,Asian,,,,old,neutral,male,,m,787,True,False,
4,1,86,test,0,male,Latino,,,,old,neutral,male,,z,705,False,False,
4,1,87,test,0,male,Black,,,,new,,,,m,661,False,False,
4,1,88,test,0,female,White,,,,old,angry,female,,z,545,False,False,
4,1,89,test,0,female,White,,,,old,neutral,female,,m,515,True,False,
4,1,90,test,0,female,White,,,,new,,,,z,562,True,False,
4,1,91,test,0,male,Asian,,,,new,,,,z,628,True,False,
4,1,92,test,0,male,White,,,,old,angry,male,,z,683,False,False,
4,1,93,test,0,female,Latino,,,,old,neutral,female,,z,732,False,False,
4,1,94,test,0,male,Black,,,,old,angry,female,,z,1723,False,False,
4,1,95,test,0,female,Latino,,,,new,,,,m,1044,False,False,
4,1,96,test,0,male,Asian,,,,new,,,,z,741,True,False,
4,1,97,test,0,female,Asian,,,,old,angry,male,,z,706,False,False,
4,1,98,test,0,male,Asian,,,,new,,,,m,648,False,False,
4,1,99,test,0,female,Black,,,,new,,,,m,1350,False,False,
4,1,100,test,0,female,Black,,,,new,,,,z,744,True,False,
4,1,101,test,1,male,White,,,,new,,,,z,1025,True,False,
4,1,102,test,1,female,White,,,,old,happy,female,,z,701,False,False,
4,1,103,test,1,female,Latino,,,,new,,,,m,640,False,False,
4,1,104,test,1,female,White,,,,new,,,,z,581,True,False,
4,1,105,test,1,male,Black,,,,old,happy,female,,z,581,False,False,
4,1,106,test,1,male,Black,,,,old,angry,male,,m,677,True,False,
4,1,107,test,1,female,White,,,,new,,,,z,548,True,False,
4,1,108,test,1,female,Asian,,,,old,angry,female,,m,832,True,False,
4,1,109,test,1,male,Latino,,,,new,,,,m,574,False,False,
4,1,110,test,1,male,Black,,,,new,,,,m,741,False,False,
4,1,111,test,1,female,Black,,,,new,,,,z,566,True,False,
4,1,112,test,1,female,White,,,,new,,,,z,558,True,False,
4,1,113,test,1,female,Asian,,,,new,,,,z,573,True,False,
4,1,114,test,1,male,Latino,,,,new,,,,z,439,True,False,
4,1,115,test,1,male,Asian,,,,old,neutral,male,,z,562,False,False,
4,1,116,test,1,female,Latino,,,,new,,,,m,486,False,False,
4,1,117,test,1,male,Latino,,,,new,,,,z,829,True,False,
4,1,118,test,1,male,Latino,,,,old,angry,female,,z,725,False,False,
4,1,119,test,1,female,Black,,,,old,happy,male,,z,566,False,False,
4,1,120,test,1,male,Latino,,,,new,,,,z,471,True,False,
4,1,121,test,1,male,White,,,,old,neutral,female,,z,462,False,False,
4,1,122,test,1,male,Black,,,,old,neutral,female,,z,411,False,False,
4,1,123,test,1,female,White,,,,old,happy,female,,z,368,False,False,
4,1,124,test,1,female,Asian,,,,old,angry,female,,z,401,False,False,
4,1,125,test,1,female,White,,,,new,,,,m,574,False,False,
4,1,126,test,1,female,White,,,,new,,,,z,524,True,False,
4,1,127,test,1,female,White,,,,new,,,,z,509,True,False,
4,1,128,test,1,male,Black,,,,new,,,,z,543,True,False,
4,1,129,test,1,female,Latino,,,,new,,,,m,477,False,False,
4,1,130,test,1,male,Asian,,,,old,neutral,female,,z,555,False,False,
4,1,131,test,1,male,Black,,,,old,angry,female,,z,500,False,False,
4,1,132,test,1,female,Asian,,,,old,neutral,male,,z,11,False,False,
4,1,133,test,1,female,White,,,,old,angry,male,,z,521,False,False,
4,1,134,test,1,male,Latino,,,,old,angry,male,,z,631,False,False,
4,1,135,test,1,male,Black,,,,old,happy,male,,m,505,True,False,
4,1,136,test,1,female,White,,,,old,neutral,male,,z,860,False,False,
4,1,137,test,1,female,White,,,,old,angry,female,,z,625,False,False,
4,1,138,test,1,male,White,,,,new,,,,z,232,True,False,
4,1,139,test,1,female,Asian,,,,old,neutral,male,,z,545,False,False,
4,1,140,test,1,female,Black,,,,new,,,,z,1249,True,False,
4,1,141,test,2,male,White,,,,old,angry,male,,z,717,False,False,
4,1,142,test,2,female,Black,,,,old,angry,male,,z,571,False,False,
4,1,143,test,2,female,White,,,,old,happy,female,,z,590,False,False,
4,1,144,test,2,male,Asian,,,,new,,,,z,571,True,False,
4,1,145,test,2,male,Latino,,,,old,angry,female,,m,627,True,False,
4,1,146,test,2,female,Latino,,,,new,,,,z,500,True,False,
4,1,147,test,2,male,Asian,,,,new,,,,z,677,True,False,
4,1,148,test,2,female,Black,,,,old,happy,male,,m,561,True,False,
4,1,149,test,2,female,Black,,,,old,angry,male,,m,308,True,False,
4,1,150,test,2,male,Black,,,,new,,,,z,401,True,False,
4,1,151,test,2,female,Asian,,,,old,neutral,male,,z,656,False,False,
4,1,152,test,2,male,Asian,,,,old,happy,male,,m,586,True,False,
4,1,153,test,2,female,White,,,,old,happy,female,,m,490,True,False,
4,1,154,test,2,male,White,,,,old,angry,male,,z,655,False,False,
4,1,155,test,2,female,White,,,,new,,,,z,593,True,False,
4,1,156,test,2,male,White,,,,new,,,,z,604,True,False,
4,1,157,test,2,male,Latino,,,,new,,,,z,684,True,False,
4,1,158,test,2,female,Black,,,,new,,,,m,562,False,False,
4,1,159,test,2,male,Black,,,,new,,,,z,607,True,False,
4,1,160,test,2,male,White,,,,old,happy,female,,z,560,False,False,
4,1,161,test,2,female,Black,,,,new,,,,z,710,True,False,
4,1,162,test,2,female,Black,,,,new,,,,m,561,False,False,
4,1,163,test,2,female,Latino,,,,new,,,,m,498,False,False,
4,1,164,test,2,male,White,,,,old,happy,female,,m,385,True,False,
4,1,165,test,2,male,White,,,,new,,,,m,438,False,False,
4,1,166,test,2,female,Black,,,,old,happy,male,,z,469,False,False,
4,1,167,test,2,male,Latino,,,,new,,,,m,488,False,False,
4,1,168,test,2,male,White,,,,new,,,,z,268,True,False,
4,1,169,test,2,male,Asian,,,,old,neutral,female,,m,444,True,False,
4,1,170,test,2,female,Black,,,,new,,,,m,680,False,False,
4,1,171,test,2,male,Latino,,,,new,,,,m,659,False,False,
4,1,172,test,2,male,White,,,,new,,,,z,774,True,False,
4,1,173,test,2,female,White,,,,old,happy,male,,z,594,False,False,
4,1,174,test,2,female,Latino,,,,old,neutral,female,,z,584,False,False,
4,1,175,test,2,female,White,,,,new,,,,m,496,False,False,
4,1,176,test,2,male,White,,,,old,angry,female,,z,705,False,False,
4,1,177,test,2,male,White,,,,new,,,,z,576,True,False,
4,1,178,test,2,male,White,,,,new,,,,z,591,True,False,
4,1,179,test,2,female,Black,,,,new,,,,m,617,False,False,
4,1,180,test,2,male,White,,,,old,neutral,male,,m,688,True,False,
5,1,1,study,0,male,Asian,female,Black,angry,,,,,m,456,True,False,
5,1,2,study,0,male,Latino,female,Black,happy,,,,,m,505,True,False,
5,1,3,study,0,female,Black,female,Black,angry,,,,,z,565,True,False,
5,1,4,study,0,male,Black,male,White,neutral,,,,,z,1521,False,False,
5,1,5,study,0,male,Asian,female,Black,angry,,,,,m,557,True,False,
5,1,6,study,0,female,White,female,White,neutral,,,,,z,689,True,False,
5,1,7,study,0,female,Latino,female,Black,angry,,,,,z,609,True,False,
5,1,8,study,0,male,Latino,male,White,happy,,,,,m,770,True,False,
5,1,9,study,0,male,Asian,male,Black,happy,,,,,m,557,True,False,
5,1,10,study,0,male,Latino,male,Black,neutral,,,,,m,609,True,False,
5,1,11,study,0,female,Asian,male,Black,neutral,,,,,z,785,True,False,
5,1,12,study,0,female,White,male,Black,happy,,,,,z,756,True,False,
5,1,13,study,0,male,Black,female,Black,happy,,,,,m,507,True,False,
5,1,14,study,0,female,Black,male,White,happy,,,,,z,795,True,False,
5,1,15,study,0,male,White,female,Black,neutral,,,,,m,525,True,False,
5,1,16,study,0,male,Latino,male,White,happy,,,,,m,858,True,False,
5,1,17,study,0,male,White,male,White,neutral,,,,,m,980,True,False,
5,1,18,study,0,female,Black,male,Black,neutral,,,,,z,624,True,False,
5,1,19,study,0,female,White,female,Black,angry,,,,,z,714,True,False,
5,1,20,study,0,female,White,male,Black,angry,,,,,z,833,True,False,
5,1,21,study,0,female,Asian,male,White,happy,,,,,z,692,True,False,
5,1,22,study,0,female,Black,female,Black,happy,,,,,z,758,True,False,
5,1,23,study,0,male,White,male,White,angry,,,,,m,1103,True,False,
5,1,24,study,0,female,Black,male,Black,happy,,,,,z,822,True,False,
5,1,25,study,0,male,Asian,female,White,neutral,,,,,m,725,True,False,
5,1,26,study,0,female,Asian,female,White,neutral,,,,,z,739,True,False,
5,1,27,study,0,female,Black,male,White,angry,,,,,z,959,True,False,
5,1,28,study,0,female,Latino,male,Black,neutral,,,,,z,1961,True,False,
5,1,29,study,0,female,White,female,Black,neutral,,,,,z,1125,True,False,
5,1,30,study,0,male,Black,female,Black,happy,,,,,m,875,True,False,
5,1,31,study,1,male,White,male,White,angry,,,,,m,567,True,False,
5,1,32,study,1,female,White,female,White,happy,,,,,z,867,True,False,
5,1,33,study,1,male,Latino,male,White,neutral,,,,,m,675,True,False,
5,1,34,study,1,female,Latino,male,White,neutral,,,,,z,672,True,False,
5,1,35,study,1,female,Latino,male,Black,happy,,,,,z,906,True,False,
5,1,36,study,1,male,Latino,female,White,neutral,,,,,m,632,True,False,
5,1,37,study,1,male,White,female,Black,angry,,,,,m,633,True,False,
5,1,38,study,1,male,Latino,female,White,angry,,,,,m,558,True,False,
5,1,39,study,1,male,White,female,White,angry,,,,,m,613,True,False,
5,1,40,study,1,female,White,female,White,happy,,,,,z,614,True,False,
5,1,41,study,1,female,Black,male,White,angry,,,,,z,546,True,False,
5,1,42,study,1,male,Latino,female,White,neutral,,,,,m,696,True,False,
5,1,43,study,1,male,Latino,male,White,neutral,,,,,m,870,True,False,
5,1,44,study,1,male,Black,male,Black,happy,,,,,m,597,True,False,
5,1,45,study,1,female,Black,female,Black,happy,,,,,z,1171,True,False,
5,1,46,study,1,male,White,male,Black,angry,,,,,m,1117,True,False,
5,1,47,study,1,male,Latino,male,White,angry,,,,,m,567,True,False,
5,1,48,study,1,male,White,male,White,angry,,,,,m,611,True,False,
5,1,49,study,1,female,Latino,male,White,angry,,,,,z,732,True,False,
5,1,50,study,1,female,Black,female,White,neutral,,,,,z,690,True,False,
5,1,51,study,1,female,Latino,female,White,angry,,,,,z,755,True,False,
5,1,52,study,1,male,Asian,female,Black,happy,,,,,m,692,True,False,
5,1,53,study,1,female,White,male,White,angry,,,,,z,640,True,False,
5,1,54,study,1,male,White,female,Black,happy,,,,,m,549,True,False,
5,1,55,study,1,female,White,female,White,happy,,,,,z,668,True,False,
5,1,56,study,1,male,Asian,male,White,happy,,,,,m,637,True,False,
5,1,57,study,1,male,Black,female,White,neutral,,,,,m,620,True,False,
5,1,58,study,1,female,Asian,male,White,neutral,,,,,z,716,True,False,
5,1,59,study,1,female,Latino,female,White,angry,,,,,z,665,True,False,
5,1,60,study,1,female,Black,female,Black,neutral,,,,,z,620,True,False,
5,1,61,test,0,female,Latino,,,,old,happy,male,,m,1078,False,False,
5,1,62,test,0,male,White,,,,new,,,,m,737,True,False,
5,1,63,test,0,female,Asian,,,,new,,,,m,896,True,False,
5,1,64,test,0,female,White,,,,old,angry,female,,z,743,True,False,
5,1,65,test,0,male,White,,,,old,angry,male,,z,808,True,False,
5,1,66,test,0,female,Asian,,,,new,,,,m,904,True,False,
5,1,67,test,0,female,Black,,,,old,angry,male,,z,1381,True,False,
5,1,68,test,0,female,Latino,,,,new,,,,m,1178,True,False,
5,1,69,test,0,female,Latino,,,,new,,,,m,2203,True,False,
5,1,70,test,0,female,Latino,,,,new,,,,m,2130,True,False,
5,1,71,test,0,female,White,,,,old,happy,female,,z,1203,True,False,
5,1,72,test,0,female,Asian,,,,new,,,,m,1841,True,False,
5,1,73,test,0,male,White,,,,new,,,,m,2868,True,False,
5,1,74,test,0,female,White,,,,new,,,,m,1263,True,False,
5,1,75,test,0,female,Black,,,,new,,,,m,1564,True,False,
5,1,76,test,0,female,Black,,,,old,neutral,male,,z,1014,True,False,
5,1,77,test,0,male,Asian,,,,old,happy,female,,m,858,False,False,
5,1,78,test,0,male,White,,,,new,,,,m,828,True,False,
5,1,79,test,0,female,Latino,,,,new,,,,m,843,True,False,
5,1,80,test,0,male,White,,,,old,neutral,male,,z,714,True,False,
5,1,81,test,0,male,Black,,,,new,,,,m,1134,True,False,
5,1,82,test,0,male,Latino,,,,new,,,,m,902,True,False,
5,1,83,test,0,male,Asian,,,,old,neutral,female,,m,976,False,False,
5,1,84,test,0,female,Latino,,,,new,,,,m,745,True,False,
5,1,85,test,0,female,White,,,,new,,,,m,788,True,False,
5,1,86,test,0,male,White,,,,old,angry,male,,z,818,True,False,
5,1,87,test,0,male,Black,,,,new,,,,z,755,False,False,
5,1,88,test,0,male,White,,,,old,angry,female,,m,783,False,False,
5,1,89,test,0,female,Black,,,,old,happy,male,,z,885,True,False,
5,1,90,test,0,female,Black,,,,old,neutral,female,,z,667,True,False,
5,1,91,test,0,male,Latino,,,,old,happy,male,,m,866,False,False,
5,1,92,test,0,male,White,,,,new,,,,m,732,True,False,
5,1,93,test,0,male,Asian,,,,new,,,,m,909,True,False,
5,1,94,test,0,female,Black,,,,old,happy,male,,m,824,False,False,
5,1,95,test,0,male,Latino,,,,old,neutral,male,,m,671,False,False,
5,1,96,test,0,male,Latino,,,,old,happy,female,,m,1174,False,False,
5,1,97,test,0,male,Black,,,,new,,,,m,734,True,False,
5,1,98,test,0,female,White,,,,new,,,,z,1062,False,False,
5,1,99,test,0,female,Black,,,,new,,,,m,981,True,False,
5,1,100,test,0,male,Latino,,,,new,,,,m,759,True,False,
5,1,101,test,1,female,Black,,,,new,,,,m,1103,True,False,
5,1,102,test,1,female,Black,,,,new,,,,m,922,True,False,
5,1,103,test,1,male,Black,,,,new,,,,m,1013,True,False,
5,1,104,test,1,female,White,,,,new,,,,m,666,True,False,
5,1,105,test,1,male,Black,,,,new,,,,m,958,True,False,
5,1,106,test,1,female,Black,,,,old,happy,female,,z,1035,True,False,
5,1,107,test,1,male,Latino,,,,old,neutral,male,,z,709,True,False,
5,1,108,test,1,male,Asian,,,,old,angry,female,,m,990,False,False,
5,1,109,test,1,female,White,,,,old,happy,male,,z,876,True,False,
5,1,110,test,1,male,White,,,,new,,,,m,925,True,False,
5,1,111,test,1,male,Latino,,,,new,,,,m,785,True,False,
5,1,112,test,1,male,White,,,,new,,,,m,630,True,False,
5,1,113,test,1,male,Black,,,,new,,,,z,925,False,False,
5,1,114,test,1,female,White,,,,new,,,,m,700,True,False,
5,1,115,test,1,male,Asian,,,,old,happy,male,,m,968,False,False,
5,1,116,test,1,male,White,,,,old,angry,male,,z,870,True,False,
5,1,117,test,1,male,Latino,,,,new,,,,m,675,True,False,
5,1,118,test,1,male,White,,,,old,happy,female,,m,1413,False,False,
5,1,119,test,1,male,Latino,,,,new,,,,m,751,True,False,
5,1,120,test,1,male,Black,,,,new,,,,m,881,True,False,
5,1,121,test,1,male,Black,,,,old,neutral,male,,z,817,True,False,
5,1,122,test,1,female,White,,,,old,happy,female,,m,820,False,False,
5,1,123,test,1,male,Latino,,,,old,happy,male,,m,786,False,False,
5,1,124,test,1,male,Asian,,,,old,happy,male,,m,940,False,False,
5,1,125,test,1,female,White,,,,new,,,,m,926,True,False,
5,1,126,test,1,male,Asian,,,,new,,,,m,703,True,False,
5,1,127,test,1,male,Latino,,,,old,neutral,male,,m,697,False,False,
5,1,128,test,1,male,White,,,,old,neutral,female,,z,822,True,False,
5,1,129,test,1,female,White,,,,new,,,,m,1343,True,False,
5,1,130,test,1,female,White,,,,old,angry,male,,z,812,True,False,
5,1,131,test,1,female,Asian,,,,old,happy,male,,z,1522,True,False,
5,1,132,test,1,male,White,,,,old,angry,female,,m,833,False,False,
5,1,133,test,1,female,White,,,,old,neutral,female,,m,988,False,False,
5,1,134,test,1,female,Latino,,,,old,angry,female,,z,944,True,False,
5,1,135,test,1,female,White,,,,old,neutral,female,,m,756,False,False,
5,1,136,test,1,female,Black,,,,old,neutral,female,,m,831,False,False,
5,1,137,test,1,female,Black,,,,new,,,,m,759,True,False,
5,1,138,test,1,male,Black,,,,old,happy,male,,m,1110,False,False,
5,1,139,test,1,female,Asian,,,,old,neutral,female,,z,1365,True,False,
5,1,140,test,1,male,Asian,,,,new,,,,m,740,True,False,
5,1,141,test,2,female,Latino,,,,new,,,,m,803,True,False,
5,1,142,test,2,female,Asian,,,,old,neutral,male,,m,888,False,False,
5,1,143,test,2,male,Black,,,,old,neutral,female,,m,849,False,False,
5,1,144,test,2,female,Latino,,,,old,angry,female,,m,617,False,False,
5,1,145,test,2,male,Latino,,,,new,,,,m,617,True,False,
5,1,146,test,2,male,White,,,,new,,,,m,666,True,False,
5,1,147,test,2,female,White,,,,new,,,,m,1035,True,False,
5,1,148,test,2,male,White,,,,new,,,,m,599,True,False,
5,1,149,test,2,female,White,,,,new,,,,m,733,True,False,
5,1,150,test,2,male,Asian,,,,old,angry,female,,m,629,False,False,
5,1,151,test,2,male,Latino,,,,old,neutral,female,,m,702,False,False,
5,1,152,test,2,male,Black,,,,old,happy,female,,z,1302,True,False,
5,1,153,test,2,female,Latino,,,,old,angry,female,,m,884,False,False,
5,1,154,test,2,female,Latino,,,,old,neutral,male,,m,923,False,False,
5,1,155,test,2,female,Black,,,,old,happy,female,,m,917,False,False,
5,1,156,test,2,male,Black,,,,new,,,,m,816,True,False,
5,1,157,test,2,female,Latino,,,,old,neutral,male,,z,914,True,False,
5,1,158,test,2,male,Black,,,,new,,,,m,996,True,False,
5,1,159,test,2,female,White,,,,old,happy,female,,z,1423,True,False,
5,1,160,test,2,female,Latino,,,,new,,,,m,932,True,False,
5,1,161,test,2,male,Latino,,,,old,angry,female,,m,793,False,False,
5,1,162,test,2,male,Black,,,,old,happy,female,,z,971,True,False,
5,1,163,test,2,male,Latino,,,,old,angry,male,,m,765,False,False,
5,1,164,test,2,female,Black,,,,old,angry,female,,z,1065,True,False,
5,1,165,test,2,male,Black,,,,new,,,,m,673,True,False,
5,1,166,test,2,male,Black,,,,new,,,,m,696,True,False,
5,1,167,test,2,male,White,,,,old,angry,male,,m,654,False,False,
5,1,168,test,2,female,Asian,,,,new,,,,m,980,True,False,
5,1,169,test,2,male,White,,,,new,,,,m,1518,True,False,
5,1,170,test,2,female,Asian,,,,new,,,,m,748,True,False,
5,1,171,test,2,male,Latino,,,,old,neutral,female,,m,964,False,False,
5,1,172,test,2,female,Latino,,,,old,angry,male,,m,712,False,False,
5,1,173,test,2,male,White,,,,new,,,,m,682,True,False,
5,1,174,test,2,female,Black,,,,new,,,,m,957,True,False,
5,1,175,test,2,female,Asian,,,,old,neutral,male,,m,835,False,False,
5,1,176,test,2,female,Asian,,,,new,,,,m,1010,True,False,
5,1,177,test,2,female,Black,,,,old,angry,male,,m,1191,False,False,
5,1,178,test,2,female,Black,,,,new,,,,m,1222,True,False,
5,1,179,test,2,female,White,,,,old,angry,male,,z,798,True,False,
5,1,180,test,2,female,Latino,,,,new,,,,m,784,True,False,
6,1,1,study,0,female,Black,female,White,happy,,,,,z,892,True,False,
6,1,2,study,0,male,Black,female,White,angry,,,,,m,685,True,False,
6,1,3,study,0,male,Black,male,White,neutral,,,,,m,627,True,False,
6,1,4,study,0,female,Latino,female,Black,happy,,,,,z,681,True,False,
6,1,5,study,0,female,Black,male,Black,angry,,,,,z,610,True,False,
6,1,6,study,0,female,Asian,male,White,happy,,,,,z,514,True,False,
6,1,7,study,0,female,Latino,female,Black,neutral,,,,,z,646,True,False,
6,1,8,study,0,male,Black,female,Black,neutral,,,,,m,619,True,False,
6,1,9,study,0,female,Black,male,Black,angry,,,,,z,854,True,False,
6,1,10,study,0,female,Latino,female,White,neutral,,,,,z,671,True,False,
6,1,11,study,0,male,Black,male,White,happy,,,,,m,678,True,False,
6,1,12,study,0,male,Asian,female,Black,neutral,,,,,m,1131,True,False,
6,1,13,study,0,male,Latino,male,White,neutral,,,,,m,622,True,False,
6,1,14,study,0,male,Asian,male,White,happy,,,,,m,1118,True,False,
6,1,15,study,0,male,White,male,Black,angry,,,,,m,617,True,False,
6,1,16,study,0,female,Asian,male,White,neutral,,,,,z,670,True,False,
6,1,17,study,0,female,White,female,Black,angry,,,,,z,643,True,False,
6,1,18,study,0,female,Black,female,Black,happy,,,,,z,719,True,False,
6,1,19,study,0,female,Latino,female,Black,happy,,,,,z,670,True,False,
6,1,20,study,0,male,Latino,female,White,angry,,,,,m,797,True,False,
6,1,21,study,0,male,White,male,White,neutral,,,,,m,1100,True,False,
6,1,22,study,0,male,White,female,Black,neutral,,,,,m,617,True,False,
6,1,23,study,0,male,White,female,Black,happy,,,,,m,643,True,False,
6,1,24,study,0,female,White,male,White,angry,,,,,z,632,True,False,
6,1,25,study,0,male,Black,female,Black,happy,,,,,m,576,True,False,
6,1,26,study,0,female,Black,male,White,angry,,,,,z,741,True,False,
6,1,27,study,0,female,White,female,White,angry,,,,,z,572,True,False,
6,1,28,study,0,male,White,male,Black,happy,,,,,m,736,True,False,
6,1,29,study,0,male,Latino,male,Black,angry,,,,,m,742,True,False,
6,1,30,study,0,male,Asian,male,Black,angry,,,,,m,627,True,False,
6,1,31,study,1,male,Asian,female,Black,neutral,,,,,m,653,True,False,
6,1,32,study,1,male,Latino,male,White,angry,,,,,m,721,True,False,
6,1,33,study,1,female,Black,female,White,neutral,,,,,z,1368,True,False,
6,1,34,study,1,female,White,female,Black,neutral,,,,,z,614,True,False,
6,1,35,study,1,female,Latino,male,White,neutral,,,,,z,636,True,False,
6,1,36,study,1,female,Asian,male,Black,happy,,,,,z,812,True,False,
6,1,37,study,1,female,Black,male,Black,angry,,,,,z,592,True,False,
6,1,38,study,1,male,Latino,male,Black,happy,,,,,m,1131,True,False,
6,1,39,study,1,female,White,male,Black,happy,,,,,z,1537,True,False,
6,1,40,study,1,male,White,female,Black,angry,,,,,m,1479,True,False,
6,1,41,study,1,male,Black,female,White,happy,,,,,m,986,True,False,
6,1,42,study,1,female,White,male,Black,neutral,,,,,z,691,True,False,
6,1,43,study,1,female,Latino,female,White,happy,,,,,z,832,True,False,
6,1,44,study,1,male,Black,female,White,angry,,,,,m,609,True,False,
6,1,45,study,1,male,White,female,White,angry,,,,,m,824,True,False,
6,1,46,study,1,male,White,female,White,neutral,,,,,m,1032,True,False,
6,1,47,study,1,male,Black,male,White,neutral,,,,,m,1622,True,False,
6,1,48,study,1,female,Asian,female,Black,angry,,,,,z,872,True,False,
6,1,49,study,1,female,Latino,female,Black,angry,,,,,z,1595,True,False,
6,1,50,study,1,male,White,male,Black,angry,,,,,m,757,True,False,
6,1,51,study,1,female,Black,female,White,angry,,,,,z,783,True,False,
6,1,52,study,1,female,Black,male,Black,happy,,,,,z,742,True,False,
6,1,53,study,1,female,Black,male,White,neutral,,,,,z,723,True,False,
6,1,54,study,1,female,White,male,Black,happy,,,,,z,1581,True,False,
6,1,55,study,1,male,White,male,White,happy,,,,,m,668,True,False,
6,1,56,study,1,male,Black,female,White,happy,,,,,m,767,True,False,
6,1,57,study,1,male,Black,female,White,happy,,,,,m,585,True,False,
6,1,58,study,1,male,Black,male,White,neutral,,,,,m,747,True,False,
6,1,59,study,1,female,White,female,White,neutral,,,,,z,602,True,False,
6,1,60,study,1,female,Black,male,White,neutral,,,,,z,742,True,False,
6,1,61,test,0,male,Black,,,,new,,,,m,2781,True,False,
6,1,62,test,0,female,Latino,,,,new,,,,z,2428,False,False,
6,1,63,test,0,female,White,,,,old,angry,female,,m,1312,False,False,
6,1,64,test,0,female,White,,,,old,neutral,male,,z,1071,True,False,
6,1,65,test,0,male,Asian,,,,new,,,,z,796,False,False,
6,1,66,test,0,female,Black,,,,new,,,,m,886,True,False,
6,1,67,test,0,female,Asian,,,,new,,,,m,591,True,False,
6,1,68,test,0,female,Latino,,,,new,,,,m,774,True,False,
6,1,69,test,0,female,White,,,,new,,,,m,703,True,False,
6,1,70,test,0,male,Black,,,,new,,,,m,671,True,False,
6,1,71,test,0,female,White,,,,new,,,,m,813,True,False,
6,1,72,test,0,female,Latino,,,,old,neutral,female,,m,672,False,False,
6,1,73,test,0,female,Black,,,,old,happy,female,,z,974,True,False,
6,1,74,test,0,female,Latino,,,,old,neutral,male,,m,725,False,False,
6,1,75,test,0,female,Black,,,,old,angry,male,,z,738,True,False,
6,1,76,test,0,male,White,,,,old,happy,female,,z,1166,True,False,
6,1,77,test,0,male,White,,,,old,angry,female,,z,888,True,False,
6,1,78,test,0,female,Asian,,,,old,happy,male,,m,805,False,False,
6,1,79,test,0,female,Asian,,,,new,,,,z,1174,False,False,
6,1,80,test,0,male,White,,,,old,neutral,female,,z,755,True,False,
6,1,81,test,0,female,Latino,,,,new,,,,z,953,False,False,
6,1,82,test,0,male,White,,,,new,,,,m,664,True,False,
6,1,83,test,0,male,White,,,,new,,,,m,839,True,False,
6,1,84,test,0,male,Black,,,,old,neutral,male,,m,748,False,False,
6,1,85,test,0,female,Black,,,,old,angry,male,,m,980,False,False,
6,1,86,test,0,female,White,,,,new,,,,m,1129,True,False,
6,1,87,test,0,male,Asian,,,,new,,,,z,877,False,False,
6,1,88,test,0,female,Latino,,,,old,neutral,female,,m,2032,False,False,
6,1,89,test,0,male,Black,,,,old,neutral,male,,z,2594,True,False,
6,1,90,test,0,male,Black,,,,new,,,,m,2127,True,False,
6,1,91,test,0,male,Black,,,,new,,,,m,1007,True,False,
6,1,92,test,0,male,Black,,,,old,angry,female,,z,1022,True,False,
6,1,93,test,0,male,Black,,,,old,neutral,male,,m,728,False,False,
6,1,94,test,0,male,White,,,,new,,,,m,1381,True,False,
6,1,95,test,0,male,Latino,,,,new,,,,m,1508,True,False,
6,1,96,test,0,female,Black,,,,old,happy,male,,m,1272,False,False,
6,1,97,test,0,female,Asian,,,,new,,,,m,1440,True,False,
6,1,98,test,0,female,White,,,,new,,,,m,1237,True,False,
6,1,99,test,0,male,White,,,,old,neutral,female,,z,1327,True,False,
6,1,100,test,0,male,Latino,,,,old,happy,male,,m,1293,False,False,
6,1,101,test,1,female,Black,,,,old,neutral,female,,m,1088,False,False,
6,1,102,test,1,male,Black,,,,old,angry,female,,m,732,False,False,
6,1,103,test,1,female,White,,,,old,happy,male,,m,975,False,False,
6,1,104,test,1,female,White,,,,new,,,,z,1175,False,False,
6,1,105,test,1,female,White,,,,new,,,,m,938,True,False,
6,1,106,test,1,male,White,,,,old,angry,male,,z,1128,True,False,
6,1,107,test,1,female,Latino,,,,old,happy,female,,z,909,True,False,
6,1,108,test,1,female,Latino,,,,new,,,,z,1566,False,False,
6,1,109,test,1,male,White,,,,old,angry,male,,m,1738,False,False,
6,1,110,test,1,female,Asian,,,,new,,,,m,1476,True,False,
6,1,111,test,1,male,Latino,,,,new,,,,m,2091,True,False,
6,1,112,test,1,female,Black,,,,old,angry,male,,z,2066,True,False,
6,1,113,test,1,male,Asian,,,,new,,,,m,1477,True,False,
6,1,114,test,1,male,Asian,,,,new,,,,z,1716,False,False,
6,1,115,test,1,male,Black,,,,old,happy,female,,z,1576,True,False,
6,1,116,test,1,female,Black,,,,new,,,,m,2651,True,False,
6,1,117,test,1,female,White,,,,new,,,,m,2521,True,False,
6,1,118,test,1,male,Latino,,,,new,,,,m,1442,True,False,
6,1,119,test,1,female,Latino,,,,new,,,,z,1836,False,False,
6,1,120,test,1,female,White,,,,old,angry,female,,m,1569,False,False,
6,1,121,test,1,male,White,,,,new,,,,m,2804,True,False,
6,1,122,test,1,male,Black,,,,old,neutral,female,,m,1699,False,False,
6,1,123,test,1,male,Black,,,,new,,,,m,1202,True,False,
6,1,124,test,1,male,Latino,,,,old,angry,female,,m,1804,False,False,
6,1,125,test,1,male,White,,,,old,angry,female,,z,1325,True,False,
6,1,126,test,1,male,White,,,,new,,,,m,1374,True,False,
6,1,127,test,1,male,White,,,,new,,,,m,1472,True,False,
6,1,128,test,1,male,White,,,,old,happy,male,,m,1373,False,False,
6,1,129,test,1,female,Asian,,,,old,neutral,male,,z,952,True,False,
6,1,130,test,1,female,White,,,,old,angry,male,,z,1476,True,False,
6,1,131,test,1,male,White,,,,new,,,,m,1073,True,False,
6,1,132,test,1,female,Black,,,,old,happy,female,,z,1110,True,False,
6,1,133,test,1,female,Black,,,,old,angry,male,,m,798,False,False,
6,1,134,test,1,female,Black,,,,old,neutral,male,,z,1266,True,False,
6,1,135,test,1,male,White,,,,old,happy,male,,m,1028,False,False,
6,1,136,test,1,male,Asian,,,,old,happy,male,,m,824,False,False,
6,1,137,test,1,male,Asian,,,,old,angry,male,,z,1512,True,False,
6,1,138,test,1,female,Black,,,,old,neutral,male,,m,1018,False,False,
6,1,139,test,1,female,Black,,,,new,,,,m,800,True,False,
6,1,140,test,1,female,Asian,,,,old,angry,female,,m,733,False,False,
6,1,141,test,2,male,White,,,,new,,,,z,830,False,False,
6,1,142,test,2,female,Latino,,,,old,happy,female,,m,680,False,False,
6,1,143,test,2,female,White,,,,new,,,,m,573,True,False,
6,1,144,test,2,male,Black,,,,old,happy,female,,m,1112,False,False,
6,1,145,test,2,female,White,,,,old,neutral,female,,m,646,False,False,
6,1,146,test,2,male,Asian,,,,old,neutral,female,,m,746,False,False,
6,1,147,test,2,male,White,,,,new,,,,m,805,True,False,
6,1,148,test,2,female,Asian,,,,old,happy,male,,m,749,False,False,
6,1,149,test,2,male,Latino,,,,old,angry,male,,z,1336,True,False,
6,1,150,test,2,female,Asian,,,,new,,,,m,676,True,False,
6,1,151,test,2,male,Latino,,,,new,,,,z,1545,False,False,
6,1,152,test,2,female,White,,,,new,,,,m,725,True,False,
6,1,153,test,2,female,Asian,,,,new,,,,m,779,True,False,
6,1,154,test,2,female,Latino,,,,new,,,,m,824,True,False,
6,1,155,test,2,male,Asian,,,,old,neutral,female,,m,1319,False,False,
6,1,156,test,2,female,Black,,,,new,,,,m,1026,True,False,
6,1,157,test,2,male,White,,,,old,neutral,male,,z,1051,True,False,
6,1,158,test,2,female,White,,,,new,,,,m,982,True,False,
6,1,159,test,2,male,Black,,,,old,happy,male,,m,858,False,False,
6,1,160,test,2,male,Black,,,,old,happy,female,,z,1083,True,False,
6,1,161,test,2,male,White,,,,new,,,,m,1515,True,False,
6,1,162,test,2,female,White,,,,old,happy,male,,m,741,False,False,
6,1,163,test,2,male,Latino,,,,new,,,,z,2226,False,False,
6,1,164,test,2,male,Latino,,,,old,angry,male,,z,1231,True,False,
6,1,165,test,2,male,White,,,,new,,,,m,757,True,False,
6,1,166,test,2,male,Latino,,,,new,,,,m,710,True,False,
6,1,167,test,2,male,Black,,,,old,happy,female,,m,1147,False,False,
6,1,168,test,2,male,White,,,,new,,,,m,700,True,False,
6,1,169,test,2,female,White,,,,new,,,,m,721,True,False,
6,1,170,test,2,female,White,,,,new,,,,m,1210,True,False,
6,1,171,test,2,male,Black,,,,new,,,,z,1115,False,False,
6,1,172,test,2,female,Black,,,,old,angry,female,,z,936,True,False,
6,1,173,test,2,female,White,,,,old,neutral,female,,m,755,False,False,
6,1,174,test,2,male,Latino,,,,old,neutral,male,,m,784,False,False,
6,1,175,test,2,female,Black,,,,new,,,,z,1247,False,False,
6,1,176,test,2,male,White,,,,new,,,,m,780,True,False,
6,1,177,test,2,female,Latino,,,,new,,,,m,781,True,False,
6,1,178,test,2,female,Latino,,,,old,angry,female,,z,1636,True,False,
6,1,179,test,2,male,Latino,,,,new,,,,m,648,True,False,
6,1,180,test,2,female,Latino,,,,old,happy,female,,m,724,False,False,
7,1,1,study,0,male,Asian,male,Black,neutral,,,,,z,809,False,False,
7,1,2,study,0,female,Black,male,White,happy,,,,,m,713,False,False,
7,1,3,study,0,female,White,male,White,angry,,,,,m,2434,False,False,
7,1,4,study,0,male,Black,male,White,neutral,,,,,z,597,False,False,
7,1,5,study,0,male,White,male,White,neutral,,,,,z,1228,False,False,
7,1,6,study,0,female,White,female,Black,angry,,,,,m,707,False,False,
7,1,7,study,0,male,Black,female,Black,happy,,,,,z,984,False,False,
7,1,8,study,0,male,Black,female,White,neutral,,,,,z,663,False,False,
7,1,9,study,0,female,Asian,male,Black,neutral,,,,,m,2257,False,False,
7,1,10,study,0,female,White,male,Black,angry,,,,,m,905,False,False,
7,1,11,study,0,female,White,male,White,happy,,,,,,,False,True,
7,1,12,study,0,female,Asian,female,Black,happy,,,,,m,1082,False,False,
7,1,13,study,0,male,Latino,male,White,neutral,,,,,z,817,False,False,
7,1,14,study,0,male,Black,male,Black,angry,,,,,z,1010,False,False,
7,1,15,study,0,female,White,male,White,neutral,,,,,m,868,False,False,
7,1,16,study,0,female,White,female,Black,neutral,,,,,m,967,False,False,
7,1,17,study,0,female,Latino,female,White,angry,,,,,m,1011,False,False,
7,1,18,study,0,female,Asian,female,White,neutral,,,,,m,775,False,False,
7,1,19,study,0,male,White,female,White,neutral,,,,,z,1119,False,False,
7,1,20,study,0,female,Asian,male,White,neutral,,,,,m,845,False,False,
7,1,21,study,0,male,White,female,Black,angry,,,,,z,1540,False,False,
7,1,22,study,0,male,Black,male,Black,happy,,,,,z,1746,False,False,
7,1,23,study,0,female,Latino,male,Black,angry,,,,,m,970,False,False,
7,1,24,study,0,male,White,male,Black,angry,,,,,z,898,False,False,
7,1,25,study,0,female,Black,female,Black,happy,,,,,z,889,True,False,
7,1,26,study,0,female,Black,female,White,neutral,,,,,m,779,False,False,
7,1,27,study,0,female,Black,female,White,neutral,,,,,m,813,False,False,
7,1,28,study,0,female,Black,male,Black,happy,,,,,m,853,False,False,
7,1,29,study,0,male,Asian,male,Black,neutral,,,,,z,1631,False,False,
7,1,30,study,0,female,Asian,male,Black,angry,,,,,m,630,False,False,
7,1,31,study,1,male,White,male,Black,angry,,,,,z,826,False,False,
7,1,32,study,1,female,Latino,female,Black,angry,,,,,m,675,False,False,
7,1,33,study,1,male,Black,male,Black,happy,,,,,z,1008,False,False,
7,1,34,study,1,female,Asian,male,White,neutral,,,,,m,1455,False,False,
7,1,35,study,1,male,Black,female,White,happy,,,,,z,677,False,False,
7,1,36,study,1,female,Latino,female,Black,angry,,,,,m,1431,False,False,
7,1,37,study,1,female,White,female,White,happy,,,,,m,1998,False,False,
7,1,38,study,1,male,Black,female,White,happy,,,,,z,924,False,False,
7,1,39,study,1,male,White,female,White,neutral,,,,,z,833,False,False,
7,1,40,study,1,female,Latino,male,White,happy,,,,,m,1333,False,False,
7,1,41,study,1,female,Latino,male,White,neutral,,,,,m,1474,False,False,
7,1,42,study,1,male,Asian,male,Black,angry,,,,,z,1864,False,False,
7,1,43,study,1,male,Latino,female,White,happy,,,,,z,2269,False,False,
7,1,44,study,1,male,Black,female,Black,angry,,,,,z,1701,False,False,
7,1,45,study,1,female,White,female,White,angry,,,,,m,2044,False,False,
7,1,46,study,1,male,Asian,male,Black,happy,,,,,z,1697,False,False,
7,1,47,study,1,male,Latino,female,Black,angry,,,,,z,1726,False,False,
7,1,48,study,1,male,Latino,female,White,neutral,,,,,z,1547,False,False,
7,1,49,study,1,male,Latino,female,White,neutral,,,,,m,2918,True,False,
7,1,50,study,1,male,White,female,Black,angry,,,,,z,949,False,False,
7,1,51,study,1,female,White,female,White,happy,,,,,m,1515,False,False,
7,1,52,study,1,male,Black,male,Black,happy,,,,,z,1667,False,False,
7,1,53,study,1,male,Latino,female,White,angry,,,,,z,1577,False,False,
7,1,54,study,1,male,Black,female,Black,happy,,,,,z,930,False,False,
7,1,55,study,1,female,White,male,White,happy,,,,,m,1567,False,False,
7,1,56,study,1,female,White,female,Black,neutral,,,,,m,1500,False,False,
7,1,57,study,1,male,Latino,male,White,happy,,,,,m,2715,True,False,
7,1,58,study,1,female,Asian,male,White,angry,,,,,m,1323,False,False,
7,1,59,study,1,female,White,female,White,happy,,,,,m,1187,False,False,
7,1,60,study,1,male,White,male,Black,angry,,,,,z,1181,False,False,
7,1,61,test,0,male,White,,,,new,,,,m,1398,False,False,
7,1,62,test,0,female,Asian,,,,old,neutral,male,,m,1487,True,False,
7,1,63,test,0,male,Asian,,,,old,neutral,male,,m,1306,True,False,
7,1,64,test,0,male,White,,,,new,,,,z,1113,True,False,
7,1,65,test,0,female,Black,,,,new,,,,m,1021,False,False,
7,1,66,test,0,female,Asian,,,,new,,,,m,1181,False,False,
7,1,67,test,0,male,Asian,,,,new,,,,z,1306,True,False,
7,1,68,test,0,female,White,,,,new,,,,z,2429,True,False,
7,1,69,test,0,male,Black,,,,old,angry,female,,z,1802,False,False,
7,1,70,test,0,female,Latino,,,,new,,,,z,1063,True,False,
7,1,71,test,0,female,Black,,,,new,,,,z,850,True,False,
7,1,72,test,0,female,Black,,,,old,happy,male,,z,767,False,False,
7,1,73,test,0,male,Black,,,,new,,,,m,978,False,False,
7,1,74,test,0,male,White,,,,old,neutral,female,,m,927,True,False,
7,1,75,test,0,female,White,,,,new,,,,m,1057,False,False,
7,1,76,test,0,male,Black,,,,old,happy,female,,z,837,False,False,
7,1,77,test,0,female,Black,,,,new,,,,z,801,True,False,
7,1,78,test,0,female,Asian,,,,old,angry,male,,z,718,False,False,
7,1,79,test,0,male,Black,,,,new,,,,m,1367,False,False,
7,1,80,test,0,female,Asian,,,,old,neutral,male,,z,1789,False,False,
7,1,81,test,0,female,White,,,,old,neutral,female,,z,1175,False,False,
7,1,82,test,0,female,Latino,,,,new,,,,z,1525,True,False,
7,1,83,test,0,female,Black,,,,old,happy,male,,z,1074,False,False,
7,1,84,test,0,female,Black,,,,new,,,,m,2516,False,False,
7,1,85,test,0,female,White,,,,new,,,,m,1079,False,False,
7,1,86,test,0,female,White,,,,old,neutral,female,,z,1013,False,False,
7,1,87,test,0,male,White,,,,old,angry,male,,z,869,False,False,
7,1,88,test,0,female,Asian,,,,new,,,,m,1452,False,False,
7,1,89,test,0,male,Black,,,,old,happy,male,,z,719,False,False,
7,1,90,test,0,male,Black,,,,new,,,,m,1240,False,False,
7,1,91,test,0,male,White,,,,new,,,,m,1615,False,False,
7,1,92,test,0,male,White,,,,new,,,,m,1367,False,False,
7,1,93,test,0,male,Latino,,,,new,,,,z,1202,True,False,
7,1,94,test,0,male,White,,,,old,neutral,male,,z,967,False,False,
7,1,95,test,0,female,Latino,,,,old,angry,female,,z,1704,False,False,
7,1,96,test,0,female,Asian,,,,new,,,,z,937,True,False,
7,1,97,test,0,female,Asian,,,,new,,,,z,988,True,False,
7,1,98,test,0,female,Asian,,,,old,neutral,female,,z,889,False,False,
7,1,99,test,0,female,Latino,,,,old,neutral,male,,z,915,False,False,
7,1,100,test,0,male,White,,,,new,,,,z,930,True,False,
7,1,101,test,1,female,Latino,,,,new,,,,z,1311,True,False,
7,1,102,test,1,male,Asian,,,,new,,,,,,False,True,
7,1,103,test,1,male,Black,,,,new,,,,m,2036,False,False,
7,1,104,test,1,male,Asian,,,,new,,,,z,2084,True,False,
7,1,105,test,1,female,Asian,,,,new,,,,z,1103,True,False,
7,1,106,test,1,female,Black,,,,new,,,,z,1565,True,False,
7,1,107,test,1,male,Asian,,,,old,neutral,male,,z,1809,False,False,
7,1,108,test,1,male,Black,,,,new,,,,m,2513,False,False,
7,1,109,test,1,male,Black,,,,old,happy,male,,m,2044,True,False,
7,1,110,test,1,male,Asian,,,,old,happy,male,,m,1055,True,False,
7,1,111,test,1,female,Asian,,,,old,neutral,male,,m,1872,True,False,
7,1,112,test,1,female,Black,,,,new,,,,m,1955,False,False,
7,1,113,test,1,male,Black,,,,old,neutral,male,,z,816,False,False,
7,1,114,test,1,female,White,,,,new,,,,m,1194,False,False,
7,1,115,test,1,male,Asian,,,,old,angry,male,,z,1097,False,False,
7,1,116,test,1,male,Black,,,,old,neutral,female,,z,1536,False,False,
7,1,117,test,1,male,Black,,,,old,happy,male,,m,1415,True,False,
7,1,118,test,1,male,Asian,,,,new,,,,m,815,False,False,
7,1,119,test,1,female,White,,,,old,happy,female,,m,709,True,False,
7,1,120,test,1,male,Black,,,,old,angry,male,,m,828,True,False,
7,1,121,test,1,female,Black,,,,old,neutral,female,,m,1641,True,False,
7,1,122,test,1,male,White,,,,new,,,,m,847,False,False,
7,1,123,test,1,male,White,,,,old,angry,male,,m,959,True,False,
7,1,124,test,1,female,White,,,,old,angry,male,,m,838,True,False,
7,1,125,test,1,female,White,,,,new,,,,m,772,False,False,
7,1,126,test,1,male,Black,,,,new,,,,m,756,False,False,
7,1,127,test,1,male,Black,,,,new,,,,m,962,False,False,
7,1,128,test,1,female,Latino,,,,new,,,,m,997,False,False,
7,1,129,test,1,female,Black,,,,new,,,,m,1198,False,False,
7,1,130,test,1,male,Latino,,,,new,,,,z,854,True,False,
7,1,131,test,1,female,White,,,,old,angry,female,,m,1398,True,False,
7,1,132,test,1,male,Black,,,,new,,,,m,2013,False,False,
7,1,133,test,1,female,Black,,,,old,neutral,female,,m,2154,True,False,
7,1,134,test,1,female,Asian,,,,old,happy,female,,m,716,True,False,
7,1,135,test,1,female,Latino,,,,old,happy,male,,m,980,True,False,
7,1,136,test,1,male,White,,,,old,angry,male,,m,840,True,False,
7,1,137,test,1,male,White,,,,old,angry,female,,m,940,True,False,
7,1,138,test,1,male,White,,,,old,neutral,female,,m,1024,True,False,
7,1,139,test,1,female,White,,,,old,happy,male,,m,859,True,False,
7,1,140,test,1,male,Latino,,,,old,happy,male,,m,598,True,False,
7,1,141,test,2,male,Latino,,,,old,angry,female,,m,1129,True,False,
7,1,142,test,2,male,Latino,,,,old,neutral,female,,z,1198,False,False,
7,1,143,test,2,female,Black,,,,old,happy,female,,m,943,True,False,
7,1,144,test,2,male,Latino,,,,old,angry,female,,m,711,True,False,
7,1,145,test,2,female,Latino,,,,old,angry,female,,m,743,True,False,
7,1,146,test,2,male,Latino,,,,new,,,,z,805,True,False,
7,1,147,test,2,male,White,,,,new,,,,m,934,False,False,
7,1,148,test,2,male,Black,,,,new,,,,m,931,False,False,
7,1,149,test,2,female,White,,,,new,,,,m,748,False,False,
7,1,150,test,2,male,Black,,,,new,,,,z,2253,True,False,
7,1,151,test,2,female,White,,,,new,,,,m,1525,False,False,
7,1,152,test,2,male,Black,,,,old,happy,female,,z,1460,False,False,
7,1,153,test,2,male,Black,,,,old,happy,female,,z,773,False,False,
7,1,154,test,2,female,Latino,,,,old,angry,male,,m,1346,True,False,
7,1,155,test,2,female,White,,,,old,angry,male,,m,783,True,False,
7,1,156,test,2,male,Latino,,,,new,,,,z,833,True,False,
7,1,157,test,2,female,Latino,,,,new,,,,m,878,False,False,
7,1,158,test,2,male,Black,,,,old,happy,female,,z,870,False,False,
7,1,159,test,2,male,Latino,,,,new,,,,m,1224,False,False,
7,1,160,test,2,male,Asian,,,,new,,,,z,1871,True,False,
7,1,161,test,2,male,Latino,,,,old,neutral,female,,z,854,False,False,
7,1,162,test,2,female,Latino,,,,new,,,,m,1107,False,False,
7,1,163,test,2,male,Asian,,,,new,,,,m,800,False,False,
7,1,164,test,2,male,White,,,,new,,,,m,768,False,False,
7,1,165,test,2,male,White,,,,old,angry,female,,m,941,True,False,
7,1,166,test,2,female,Asian,,,,old,angry,male,,m,792,True,False,
7,1,167,test,2,female,White,,,,old,happy,female,,m,836,True,False,
7,1,168,test,2,female,White,,,,old,happy,male,,m,981,True,False,
7,1,169,test,2,male,Latino,,,,old,happy,female,,m,710,True,False,
7,1,170,test,2,female,Black,,,,new,,,,m,383,False,False,
7,1,171,test,2,female,White,,,,old,angry,female,,m,933,True,False,
7,1,172,test,2,female,Black,,,,new,,,,m,1034,False,False,
7,1,173,test,2,female,White,,,,old,neutral,male,,m,847,True,False,
7,1,174,test,2,female,White,,,,new,,,,m,952,False,False,
7,1,175,test,2,female,White,,,,old,happy,female,,m,943,True,False,
7,1,176,test,2,male,Latino,,,,old,neutral,male,,m,1174,True,False,
7,1,177,test,2,male,White,,,,new,,,,m,913,False,False,
7,1,178,test,2,female,Latino,,,,old,angry,female,,m,1125,True,False,
7,1,179,test,2,female,Asian,,,,new,,,,m,793,False,False,
7,1,180,test,2,female,White,,,,new,,,,m,803,False,False,
8,1,1,study,0,female,Black,male,Black,neutral,,,,,z,700,True,False,
8,1,2,study,0,male,Black,male,White,happy,,,,,m,698,True,False,
8,1,3,study,0,female,Black,male,White,happy,,,,,m,1114,False,False,
8,1,4,study,0,male,Latino,male,White,neutral,,,,,m,1098,True,False,
8,1,5,study,0,male,Latino,male,White,happy,,,,,m,714,True,False,
8,1,6,study,0,female,Black,male,Black,happy,,,,,z,1040,True,False,
8,1,7,study,0,male,White,male,Black,happy,,,,,m,846,True,False,
8,1,8,study,0,male,Black,female,Black,happy,,,,,z,866,False,False,
8,1,9,study,0,male,White,male,Black,neutral,,,,,m,821,True,False,
8,1,10,study,0,female,White,male,Black,angry,,,,,z,833,True,False,
8,1,11,study,0,male,Latino,male,White,neutral,,,,,m,745,True,False,
8,1,12,study,0,male,Latino,female,Black,neutral,,,,,m,1378,True,False,
8,1,13,study,0,male,White,female,Black,angry,,,,,m,707,True,False,
8,1,14,study,0,male,Black,male,Black,happy,,,,,m,794,True,False,
8,1,15,study,0,female,White,male,White,neutral,,,,,z,1133,True,False,
8,1,16,study,0,male,White,male,Black,neutral,,,,,m,629,True,False,
8,1,17,study,0,female,Black,male,Black,angry,,,,,m,1233,False,False,
8,1,18,study,0,male,Latino,female,Black,happy,,,,,z,768,False,False,
8,1,19,study,0,male,Latino,female,White,neutral,,,,,z,868,False,False,
8,1,20,study,0,female,Black,female,Black,happy,,,,,z,765,True,False,
8,1,21,study,0,male,Latino,female,White,happy,,,,,z,848,False,False,
8,1,22,study,0,female,Black,female,White,angry,,,,,z,910,True,False,
8,1,23,study,0,female,Black,female,White,angry,,,,,z,681,True,False,
8,1,24,study,0,male,Latino,female,Black,neutral,,,,,z,844,False,False,
8,1,25,study,0,female,Asian,female,White,neutral,,,,,z,762,True,False,
8,1,26,study,0,female,Black,female,White,neutral,,,,,z,709,True,False,
8,1,27,study,0,male,Black,female,White,happy,,,,,z,697,False,False,
8,1,28,study,0,female,Latino,female,Black,happy,,,,,z,652,True,False,
8,1,29,study,0,female,White,female,White,happy,,,,,z,624,True,False,
8,1,30,study,0,female,Latino,male,Black,happy,,,,,m,918,False,False,
8,1,31,study,1,female,Asian,male,Black,neutral,,,,,z,1025,True,False,
8,1,32,study,1,female,Latino,female,Black,neutral,,,,,z,599,True,False,
8,1,33,study,1,female,Asian,female,White,neutral,,,,,z,606,True,False,
8,1,34,study,1,male,Asian,male,White,angry,,,,,m,749,True,False,
8,1,35,study,1,female,White,male,Black,angry,,,,,m,840,False,False,
8,1,36,study,1,female,White,female,Black,angry,,,,,z,799,True,False,
8,1,37,study,1,male,Asian,female,Black,neutral,,,,,z,721,False,False,
8,1,38,study,1,female,Latino,male,Black,angry,,,,,m,976,False,False,
8,1,39,study,1,male,Black,female,White,neutral,,,,,z,836,False,False,
8,1,40,study,1,male,White,male,Black,angry,,,,,m,782,True,False,
8,1,41,study,1,male,Black,female,Black,angry,,,,,z,783,False,False,
8,1,42,study,1,male,Asian,female,Black,happy,,,,,z,578,False,False,
8,1,43,study,1,female,Black,male,White,neutral,,,,,m,903,False,False,
8,1,44,study,1,male,Black,male,White,happy,,,,,m,713,True,False,
8,1,45,study,1,female,Black,male,White,neutral,,,,,m,1019,False,False,
8,1,46,study,1,female,Asian,female,Black,neutral,,,,,z,600,True,False,
8,1,47,study,1,male,Latino,male,White,angry,,,,,m,904,True,False,
8,1,48,study,1,male,Asian,male,White,angry,,,,,m,919,True,False,
8,1,49,study,1,male,White,male,Black,neutral,,,,,m,912,True,False,
8,1,50,study,1,male,White,male,White,angry,,,,,m,772,True,False,
8,1,51,study,1,female,White,male,Black,happy,,,,,m,1136,False,False,
8,1,52,study,1,male,Black,female,White,angry,,,,,z,584,False,False,
8,1,53,study,1,female,Asian,male,White,happy,,,,,m,716,False,False,
8,1,54,study,1,male,Black,female,White,angry,,,,,m,813,True,False,
8,1,55,study,1,female,Asian,male,Black,angry,,,,,m,814,False,False,
8,1,56,study,1,female,Latino,female,Black,happy,,,,,z,598,True,False,
8,1,57,study,1,female,Latino,female,Black,angry,,,,,z,768,True,False,
8,1,58,study,1,female,Asian,female,Black,happy,,,,,z,750,True,False,
8,1,59,study,1,male,Black,female,White,angry,,,,,z,796,False,False,
8,1,60,study,1,female,Black,female,Black,angry,,,,,z,609,True,False,
8,1,61,test,0,female,White,,,,new,,,,z,1069,True,False,
8,1,62,test,0,male,Latino,,,,old,happy,female,,m,1415,True,False,
8,1,63,test,0,female,White,,,,new,,,,z,1336,True,False,
8,1,64,test,0,male,Black,,,,old,happy,male,,z,1084,False,False,
8,1,65,test,0,male,Asian,,,,old,angry,male,,m,600,True,False,
8,1,66,test,0,female,Black,,,,old,neutral,male,,m,765,True,False,
8,1,67,test,0,male,White,,,,new,,,,m,848,False,False,
8,1,68,test,0,female,Asian,,,,old,angry,male,,m,640,True,False,
8,1,69,test,0,male,Latino,,,,old,neutral,female,,z,1191,False,False,
8,1,70,test,0,male,Black,,,,new,,,,m,1058,False,False,
8,1,71,test,0,male,Latino,,,,old,angry,male,,z,1159,False,False,
8,1,72,test,0,male,Asian,,,,new,,,,z,1152,True,False,
8,1,73,test,0,male,Asian,,,,old,angry,male,,z,1008,False,False,
8,1,74,test,0,female,Black,,,,new,,,,m,898,False,False,
8,1,75,test,0,male,Black,,,,old,neutral,female,,m,722,True,False,
8,1,76,test,0,male,Black,,,,old,happy,male,,z,996,False,False,
8,1,77,test,0,male,Asian,,,,new,,,,m,765,False,False,
8,1,78,test,0,female,Latino,,,,old,happy,male,,z,750,False,False,
8,1,79,test,0,female,Asian,,,,old,neutral,male,,m,885,True,False,
8,1,80,test,0,female,Black,,,,new,,,,m,614,False,False,
8,1,81,test,0,female,White,,,,new,,,,z,1055,True,False,
8,1,82,test,0,male,Black,,,,new,,,,z,1111,True,False,
8,1,83,test,0,female,Asian,,,,new,,,,m,900,False,False,
8,1,84,test,0,male,Latino,,,,new,,,,m,795,False,False,
8,1,85,test,0,female,Asian,,,,old,neutral,female,,m,789,True,False,
8,1,86,test,0,male,Latino,,,,old,neutral,male,,m,917,True,False,
8,1,87,test,0,male,Asian,,,,new,,,,z,909,True,False,
8,1,88,test,0,female,White,,,,old,happy,female,,z,904,False,False,
8,1,89,test,0,male,Latino,,,,new,,,,m,973,False,False,
8,1,90,test,0,male,Black,,,,old,angry,female,,z,857,False,False,
8,1,91,test,0,male,Black,,,,old,happy,male,,z,809,False,False,
8,1,92,test,0,male,Black,,,,old,happy,female,,m,1214,True,False,
8,1,93,test,0,male,White,,,,new,,,,m,1104,False,False,
8,1,94,test,0,male,Asian,,,,new,,,,z,771,True,False,
8,1,95,test,0,female,White,,,,new,,,,m,676,False,False,
8,1,96,test,0,female,Black,,,,new,,,,z,798,True,False,
8,1,97,test,0,female,White,,,,new,,,,m,1314,False,False,
8,1,98,test,0,female,Asian,,,,old,neutral,female,,z,1057,False,False,
8,1,99,test,0,female,Latino,,,,old,neutral,female,,m,816,True,False,
8,1,100,test,0,male,Black,,,,old,angry,female,,m,750,True,False,
8,1,101,test,1,male,White,,,,old,happy,male,,m,866,True,False,
8,1,102,test,1,female,Asian,,,,old,happy,female,,m,729,True,False,
8,1,103,test,1,female,Black,,,,old,happy,male,,m,644,True,False,
8,1,104,test,1,male,White,,,,new,,,,z,946,True,False,
8,1,105,test,1,female,White,,,,old,happy,male,,m,742,True,False,
8,1,106,test,1,male,Latino,,,,old,neutral,female,,z,1099,False,False,
8,1,107,test,1,female,Black,,,,new,,,,z,1099,True,False,
8,1,108,test,1,female,Black,,,,old,angry,female,,z,1017,False,False,
8,1,109,test,1,female,Latino,,,,new,,,,z,1005,True,False,
8,1,110,test,1,female,White,,,,new,,,,m,683,False,False,
8,1,111,test,1,female,White,,,,new,,,,m,800,False,False,
8,1,112,test,1,female,Black,,,,old,angry,female,,m,847,True,False,
8,1,113,test,1,female,Asian,,,,new,,,,m,737,False,False,
8,1,114,test,1,male,Black,,,,new,,,,m,831,False,False,
8,1,115,test,1,male,Latino,,,,old,happy,female,,z,830,False,False,
8,1,116,test,1,male,Latino,,,,old,neutral,male,,m,826,True,False,
8,1,117,test,1,female,White,,,,old,angry,male,,m,732,True,False,
8,1,118,test,1,female,White,,,,new,,,,m,694,False,False,
8,1,119,test,1,female,Black,,,,old,neutral,male,,m,614,True,False,
8,1,120,test,1,male,Black,,,,old,angry,female,,z,728,False,False,
8,1,121,test,1,female,White,,,,old,angry,female,,z,918,False,False,
8,1,122,test,1,male,White,,,,new,,,,z,819,True,False,
8,1,123,test,1,male,Asian,,,,new,,,,m,654,False,False,
8,1,124,test,1,female,Black,,,,old,happy,male,,m,793,True,False,
8,1,125,test,1,female,Latino,,,,new,,,,m,1124,False,False,
8,1,126,test,1,male,Black,,,,new,,,,z,996,True,False,
8,1,127,test,1,male,White,,,,old,angry,female,,m,855,True,False,
8,1,128,test,1,female,Latino,,,,new,,,,m,1058,False,False,
8,1,129,test,1,male,Latino,,,,old,happy,male,,m,835,True,False,
8,1,130,test,1,female,Black,,,,old,happy,female,,z,956,False,False,
8,1,131,test,1,female,White,,,,old,angry,male,,z,834,False,False,
8,1,132,test,1,female,Black,,,,new,,,,z,937,True,False,
8,1,133,test,1,male,Latino,,,,old,neutral,female,,m,1146,True,False,
8,1,134,test,1,male,White,,,,new,,,,z,1135,True,False,
8,1,135,test,1,male,White,,,,old,angry,male,,m,802,True,False,
8,1,136,test,1,male,Black,,,,old,angry,female,,z,936,False,False,
8,1,137,test,1,female,Black,,,,new,,,,z,1199,True,False,
8,1,138,test,1,female,Asian,,,,old,neutral,female,,m,848,True,False,
8,1,139,test,1,male,White,,,,old,angry,male,,m,905,True,False,
8,1,140,test,1,male,Latino,,,,new,,,,m,851,False,False,
8,1,141,test,2,female,Latino,,,,old,happy,female,,z,860,False,False,
8,1,142,test,2,female,Asian,,,,new,,,,z,877,True,False,
8,1,143,test,2,female,Black,,,,old,angry,female,,m,1036,True,False,
8,1,144,test,2,male,Asian,,,,old,neutral,female,,m,919,True,False,
8,1,145,test,2,female,Black,,,,old,neutral,female,,z,981,False,False,
8,1,146,test,2,male,Black,,,,old,happy,female,,m,897,True,False,
8,1,147,test,2,male,White,,,,old,neutral,male,,z,916,False,False,
8,1,148,test,2,male,Latino,,,,new,,,,z,905,True,False,
8,1,149,test,2,female,Asian,,,,old,happy,male,,m,825,True,False,
8,1,150,test,2,female,Black,,,,old,neutral,male,,z,1089,False,False,
8,1,151,test,2,male,Asian,,,,old,happy,female,,m,813,True,False,
8,1,152,test,2,female,Black,,,,new,,,,z,974,True,False,
8,1,153,test,2,male,White,,,,new,,,,m,1022,False,False,
8,1,154,test,2,male,White,,,,new,,,,z,1015,True,False,
8,1,155,test,2,male,White,,,,new,,,,z,889,True,False,
8,1,156,test,2,female,White,,,,old,neutral,male,,m,912,True,False,
8,1,157,test,2,male,White,,,,old,neutral,male,,z,1083,False,False,
8,1,158,test,2,male,White,,,,old,neutral,male,,z,921,False,False,
8,1,159,test,2,female,Black,,,,new,,,,z,987,True,False,
8,1,160,test,2,female,Asian,,,,new,,,,m,1109,False,False,
8,1,161,test,2,male,Latino,,,,new,,,,z,1024,True,False,
8,1,162,test,2,male,Asian,,,,new,,,,z,984,True,False,
8,1,163,test,2,female,Asian,,,,new,,,,m,1056,False,False,
8,1,164,test,2,female,Latino,,,,old,angry,female,,m,1191,True,False,
8,1,165,test,2,male,White,,,,new,,,,z,1201,True,False,
8,1,166,test,2,male,Latino,,,,new,,,,z,1070,True,False,
8,1,167,test,2,female,Latino,,,,new,,,,z,1081,True,False,
8,1,168,test,2,female,Black,,,,new,,,,z,1029,True,False,
8,1,169,test,2,female,Black,,,,new,,,,z,917,True,False,
8,1,170,test,2,male,White,,,,new,,,,z,1057,True,False,
8,1,171,test,2,female,Latino,,,,old,happy,female,,z,1033,False,False,
8,1,172,test,2,female,Asian,,,,new,,,,z,964,True,False,
8,1,173,test,2,male,White,,,,new,,,,m,952,False,False,
8,1,174,test,2,female,Black,,,,old,angry,male,,z,857,False,False,
8,1,175,test,2,male,Latino,,,,new,,,,z,921,True,False,
8,1,176,test,2,female,White,,,,new,,,,z,982,True,False,
8,1,177,test,2,male,Asian,,,,new,,,,m,769,False,False,
8,1,178,test,2,male,Latino,,,,new,,,,m,1269,False,False,
8,1,179,test,2,female,Latino,,,,old,angry,male,,z,1047,False,False,
8,1,180,test,2,female,Asian,,,,new,,,,z,899,True,False,
