subject_number,dataset,condition,trial_number,phase,block,target_gender,target_race,flanker_gender,flanker_race,flanker_emotion,stimulus_type,study_flanker_emotion,study_flanker_gender,pair_type,response,rt,correct,timed_out,rating
1,mar02,1,1,study,0,male,Latino,female,White,happy,,,,,m,875.0,True,False,
1,mar02,1,2,study,0,female,Latino,female,White,happy,,,,,z,1880.0,True,False,
1,mar02,1,3,study,0,male,Asian,female,White,neutral,,,,,m,854.0,True,False,
1,mar02,1,4,study,0,male,White,male,White,neutral,,,,,m,740.0,True,False,
1,mar02,1,5,study,0,female,Asian,male,White,angry,,,,,z,859.0,True,False,
1,mar02,1,6,study,0,female,Black,female,Black,angry,,,,,z,1103.0,True,False,
1,mar02,1,7,study,0,male,Black,female,Black,happy,,,,,m,730.0,True,False,
1,mar02,1,8,study,0,male,White,male,White,angry,,,,,m,905.0,True,False,
1,mar02,1,9,study,0,male,Black,male,Black,happy,,,,,m,929.0,True,False,
1,mar02,1,10,study,0,male,White,female,Black,happy,,,,,m,767.0,True,False,
1,mar02,1,11,study,0,male,White,male,Black,angry,,,,,m,626.0,True,False,
1,mar02,1,12,study,0,female,Black,female,Black,neutral,,,,,z,929.0,True,False,
1,mar02,1,13,study,0,female,Asian,male,White,happy,,,,,z,800.0,True,False,
1,mar02,1,14,study,0,female,Black,male,Black,neutral,,,,,z,813.0,True,False,
1,mar02,1,15,study,0,female,White,male,Black,happy,,,,,z,676.0,True,False,
1,mar02,1,16,study,0,female,Asian,male,White,happy,,,,,z,799.0,True,False,
1,mar02,1,17,study,0,male,Black,female,White,angry,,,,,m,840.0,True,False,
1,mar02,1,18,study,0,female,Black,female,Black,happy,,,,,z,1070.0,True,False,
1,mar02,1,19,study,0,female,Asian,male,White,neutral,,,,,z,2000.0,True,False,
1,mar02,1,20,study,0,male,White,female,Black,happy,,,,,m,686.0,True,False,
1,mar02,1,21,study,0,female,Latino,female,Black,happy,,,,,z,729.0,True,False,
1,mar02,1,22,study,0,male,Black,female,White,neutral,,,,,m,671.0,True,False,
1,mar02,1,23,study,0,male,Asian,male,Black,happy,,,,,m,685.0,True,False,
1,mar02,1,24,study,0,female,Asian,male,White,neutral,,,,,z,796.0,True,False,
1,mar02,1,25,study,0,male,Black,male,White,neutral,,,,,m,886.0,True,False,
1,mar02,1,26,study,0,male,Black,female,Black,neutral,,,,,m,764.0,True,False,
1,mar02,1,27,study,0,male,White,female,White,angry,,,,,m,815.0,True,False,
1,mar02,1,28,study,0,male,Black,male,White,neutral,,,,,m,989.0,True,False,
1,mar02,1,29,study,0,female,Asian,female,White,happy,,,,,z,711.0,True,False,
1,mar02,1,30,study,0,female,Black,female,Black,angry,,,,,z,777.0,True,False,
1,mar02,1,31,study,1,male,White,male,White,angry,,,,,m,717.0,True,False,
1,mar02,1,32,study,1,female,Asian,female,White,neutral,,,,,z,679.0,True,False,
1,mar02,1,33,study,1,female,White,female,White,neutral,,,,,z,744.0,True,False,
1,mar02,1,34,study,1,female,White,male,White,angry,,,,,z,940.0,True,False,
1,mar02,1,35,study,1,male,White,female,White,neutral,,,,,m,803.0,True,False,
1,mar02,1,36,study,1,female,Latino,male,Black,happy,,,,,z,910.0,True,False,
1,mar02,1,37,study,1,female,Black,male,Black,angry,,,,,m,2332.0,False,False,
1,mar02,1,38,study,1,male,Latino,female,White,neutral,,,,,m,1262.0,True,False,
1,mar02,1,39,study,1,female,White,male,Black,angry,,,,,z,888.0,True,False,
1,mar02,1,40,study,1,female,Asian,female,White,angry,,,,,z,2359.0,True,False,
1,mar02,1,41,study,1,male,Black,female,White,angry,,,,,m,1093.0,True,False,
1,mar02,1,42,study,1,female,White,female,Black,happy,,,,,z,1178.0,True,False,
1,mar02,1,43,study,1,male,Latino,male,White,happy,,,,,m,769.0,True,False,
1,mar02,1,44,study,1,female,Black,female,White,neutral,,,,,z,1076.0,True,False,
1,mar02,1,45,study,1,female,Black,female,White,neutral,,,,,z,1210.0,True,False,
1,mar02,1,46,study,1,female,Black,male,Black,neutral,,,,,z,1115.0,True,False,
1,mar02,1,47,study,1,male,White,male,White,happy,,,,,m,831.0,True,False,
1,mar02,1,48,study,1,male,Black,female,Black,angry,,,,,m,1817.0,True,False,
1,mar02,1,49,study,1,male,Black,male,Black,neutral,,,,,m,766.0,True,False,
1,mar02,1,50,study,1,male,White,male,White,angry,,,,,m,1140.0,True,False,
1,mar02,1,51,study,1,male,White,male,Black,happy,,,,,m,923.0,True,False,
1,mar02,1,52,study,1,female,Asian,male,Black,happy,,,,,z,841.0,True,False,
1,mar02,1,53,study,1,male,Black,female,White,angry,,,,,m,1131.0,True,False,
1,mar02,1,54,study,1,female,Black,male,White,angry,,,,,z,936.0,True,False,
1,mar02,1,55,study,1,female,Black,male,White,neutral,,,,,z,622.0,True,False,
1,mar02,1,56,study,1,female,Black,female,Black,angry,,,,,z,1000.0,True,False,
1,mar02,1,57,study,1,male,White,male,Black,neutral,,,,,m,1124.0,True,False,
1,mar02,1,58,study,1,male,Latino,female,White,happy,,,,,m,695.0,True,False,
1,mar02,1,59,study,1,male,Latino,male,White,angry,,,,,m,909.0,True,False,
1,mar02,1,60,study,1,female,Black,female,White,angry,,,,,z,1512.0,True,False,
1,mar02,1,61,test,0,female,Latino,,,,new,,,,m,1116.0,True,False,
1,mar02,1,62,test,0,male,Black,,,,old,angry,female,,z,1271.0,True,False,
1,mar02,1,63,test,0,female,Black,,,,old,neutral,female,,z,1405.0,True,False,
1,mar02,1,64,test,0,male,Asian,,,,new,,,,z,1497.0,False,False,
1,mar02,1,65,test,0,male,Black,,,,new,,,,m,1455.0,True,False,
1,mar02,1,66,test,0,male,Black,,,,old,happy,male,,z,1228.0,True,False,
1,mar02,1,67,test,0,male,White,,,,old,happy,male,,z,1430.0,True,False,
1,mar02,1,68,test,0,male,Latino,,,,new,,,,m,955.0,True,False,
1,mar02,1,69,test,0,male,Latino,,,,old,happy,female,,m,1357.0,False,False,
1,mar02,1,70,test,0,male,White,,,,new,,,,m,2069.0,True,False,
1,mar02,1,71,test,0,female,Black,,,,old,neutral,female,,z,1312.0,True,False,
1,mar02,1,72,test,0,female,Black,,,,old,angry,female,,z,1545.0,True,False,
1,mar02,1,73,test,0,male,Black,,,,old,angry,female,,m,2557.0,False,False,
1,mar02,1,74,test,0,female,White,,,,old,happy,male,,z,1555.0,True,False,
1,mar02,1,75,test,0,female,Latino,,,,new,,,,m,2209.0,True,False,
1,mar02,1,76,test,0,male,Latino,,,,new,,,,m,1118.0,True,False,
1,mar02,1,77,test,0,male,Black,,,,new,,,,z,1812.0,False,False,
1,mar02,1,78,test,0,male,Black,,,,new,,,,,,False,True,
1,mar02,1,79,test,0,male,Latino,,,,old,angry,male,,m,1266.0,False,False,
1,mar02,1,80,test,0,male,Black,,,,old,angry,female,,z,1284.0,True,False,
1,mar02,1,81,test,0,female,Asian,,,,old,angry,female,,z,1257.0,True,False,
1,mar02,1,82,test,0,male,Asian,,,,new,,,,z,2001.0,False,False,
1,mar02,1,83,test,0,female,Black,,,,old,angry,female,,z,1360.0,True,False,
1,mar02,1,84,test,0,male,Black,,,,new,,,,m,1736.0,True,False,
1,mar02,1,85,test,0,male,White,,,,new,,,,m,2071.0,True,False,
1,mar02,1,86,test,0,female,Asian,,,,old,happy,male,,z,801.0,True,False,
1,mar02,1,87,test,0,female,Latino,,,,new,,,,m,881.0,True,False,
1,mar02,1,88,test,0,female,Latino,,,,new,,,,m,626.0,True,False,
1,mar02,1,89,test,0,male,Black,,,,old,neutral,male,,m,1149.0,False,False,
1,mar02,1,90,test,0,female,Black,,,,new,,,,m,940.0,True,False,
1,mar02,1,91,test,0,male,White,,,,old,angry,male,,m,652.0,False,False,
1,mar02,1,92,test,0,male,Latino,,,,new,,,,z,1352.0,False,False,
1,mar02,1,93,test,0,male,Black,,,,old,happy,female,,m,1097.0,False,False,
1,mar02,1,94,test,0,female,Black,,,,new,,,,m,1019.0,True,False,
1,mar02,1,95,test,0,female,Latino,,,,new,,,,z,2081.0,False,False,
1,mar02,1,96,test,0,male,Asian,,,,new,,,,m,825.0,True,False,
1,mar02,1,97,test,0,female,Black,,,,new,,,,z,1280.0,False,False,
1,mar02,1,98,test,0,male,Black,,,,old,neutral,male,,z,804.0,True,False,
1,mar02,1,99,test,0,female,White,,,,new,,,,m,1033.0,True,False,
1,mar02,1,100,test,0,female,Black,,,,old,neutral,female,,z,1784.0,True,False,
1,mar02,1,101,test,1,female,Asian,,,,old,happy,male,,z,1303.0,True,False,
1,mar02,1,102,test,1,female,White,,,,old,angry,male,,z,967.0,True,False,
1,mar02,1,103,test,1,male,White,,,,old,happy,female,,m,1077.0,False,False,
1,mar02,1,104,test,1,male,Latino,,,,new,,,,m,2477.0,True,False,
1,mar02,1,105,test,1,female,Asian,,,,old,neutral,female,,m,1700.0,False,False,
1,mar02,1,106,test,1,male,White,,,,new,,,,m,2104.0,True,False,
1,mar02,1,107,test,1,female,White,,,,old,happy,female,,z,1500.0,True,False,
1,mar02,1,108,test,1,female,White,,,,old,neutral,female,,z,2011.0,True,False,
1,mar02,1,109,test,1,female,Asian,,,,new,,,,m,2800.0,True,False,
1,mar02,1,110,test,1,male,White,,,,old,neutral,male,,m,1861.0,False,False,
1,mar02,1,111,test,1,female,White,,,,new,,,,m,1763.0,True,False,
1,mar02,1,112,test,1,female,Asian,,,,old,neutral,male,,z,1184.0,True,False,
1,mar02,1,113,test,1,female,White,,,,new,,,,z,1645.0,False,False,
1,mar02,1,114,test,1,male,White,,,,old,angry,male,,z,1211.0,True,False,
1,mar02,1,115,test,1,male,White,,,,old,angry,male,,m,1984.0,False,False,
1,mar02,1,116,test,1,female,Black,,,,old,angry,female,,m,1405.0,False,False,
1,mar02,1,117,test,1,male,Asian,,,,new,,,,m,2304.0,True,False,
1,mar02,1,118,test,1,male,Latino,,,,new,,,,m,2687.0,True,False,
1,mar02,1,119,test,1,male,White,,,,new,,,,m,2645.0,True,False,
1,mar02,1,120,test,1,male,Latino,,,,old,neutral,female,,,,False,True,
1,mar02,1,121,test,1,male,Latino,,,,old,happy,male,,m,894.0,False,False,
1,mar02,1,122,test,1,female,Black,,,,old,happy,female,,z,1768.0,True,False,
1,mar02,1,123,test,1,female,White,,,,new,,,,z,936.0,False,False,
1,mar02,1,124,test,1,male,Asian,,,,new,,,,m,884.0,True,False,
1,mar02,1,125,test,1,female,White,,,,new,,,,m,641.0,True,False,
1,mar02,1,126,test,1,male,White,,,,new,,,,z,1225.0,False,False,
1,mar02,1,127,test,1,male,Latino,,,,new,,,,m,1013.0,True,False,
1,mar02,1,128,test,1,female,Latino,,,,old,happy,female,,z,853.0,True,False,
1,mar02,1,129,test,1,female,Latino,,,,old,happy,male,,m,971.0,False,False,
1,mar02,1,130,test,1,female,Black,,,,new,,,,m,969.0,True,False,
1,mar02,1,131,test,1,female,Black,,,,new,,,,m,1459.0,True,False,
1,mar02,1,132,test,1,male,Black,,,,old,neutral,female,,z,1140.0,True,False,
1,mar02,1,133,test,1,male,Asian,,,,old,neutral,female,,z,1109.0,True,False,
1,mar02,1,134,test,1,female,Asian,,,,old,neutral,male,,z,1241.0,True,False,
1,mar02,1,135,test,1,male,White,,,,old,angry,male,,z,1151.0,True,False,
1,mar02,1,136,test,1,female,Black,,,,old,angry,male,,z,984.0,True,False,
1,mar02,1,137,test,1,male,Latino,,,,new,,,,m,1365.0,True,False,
1,mar02,1,138,test,1,male,Black,,,,old,neutral,male,,m,1045.0,False,False,
1,mar02,1,139,test,1,male,Black,,,,old,neutral,female,,m,1160.0,False,False,
1,mar02,1,140,test,1,male,Black,,,,old,angry,female,,m,2505.0,False,False,
1,mar02,1,141,test,2,female,Asian,,,,old,happy,female,,z,2131.0,True,False,
1,mar02,1,142,test,2,male,Black,,,,new,,,,m,720.0,True,False,
1,mar02,1,143,test,2,female,Latino,,,,new,,,,m,832.0,True,False,
1,mar02,1,144,test,2,male,White,,,,old,happy,female,,m,1918.0,False,False,
1,mar02,1,145,test,2,female,Black,,,,new,,,,m,911.0,True,False,
1,mar02,1,146,test,2,male,Asian,,,,new,,,,m,1871.0,True,False,
1,mar02,1,147,test,2,male,White,,,,old,neutral,male,,m,817.0,False,False,
1,mar02,1,148,test,2,female,White,,,,new,,,,z,1161.0,False,False,
1,mar02,1,149,test,2,male,White,,,,new,,,,m,1016.0,True,False,
1,mar02,1,150,test,2,female,Latino,,,,new,,,,m,1025.0,True,False,
1,mar02,1,151,test,2,female,Black,,,,old,angry,male,,z,1464.0,True,False,
1,mar02,1,152,test,2,female,Asian,,,,old,angry,male,,z,937.0,True,False,
1,mar02,1,153,test,2,male,White,,,,old,angry,female,,m,1019.0,False,False,
1,mar02,1,154,test,2,female,Black,,,,old,neutral,male,,m,2800.0,False,False,
1,mar02,1,155,test,2,female,Asian,,,,old,happy,male,,z,1201.0,True,False,
1,mar02,1,156,test,2,male,Asian,,,,new,,,,m,876.0,True,False,
1,mar02,1,157,test,2,male,Black,,,,new,,,,m,1320.0,True,False,
1,mar02,1,158,test,2,male,Black,,,,new,,,,m,1024.0,True,False,
1,mar02,1,159,test,2,female,White,,,,old,angry,male,,m,1062.0,False,False,
1,mar02,1,160,test,2,female,Latino,,,,new,,,,z,1744.0,False,False,
1,mar02,1,161,test,2,male,Asian,,,,new,,,,m,920.0,True,False,
1,mar02,1,162,test,2,female,Black,,,,new,,,,m,1165.0,True,False,
1,mar02,1,163,test,2,male,Black,,,,new,,,,m,793.0,True,False,
1,mar02,1,164,test,2,female,Asian,,,,new,,,,m,1057.0,True,False,
1,mar02,1,165,test,2,male,White,,,,old,neutral,female,,,,False,True,
1,mar02,1,166,test,2,female,Black,,,,old,neutral,male,,m,1128.0,False,False,
1,mar02,1,167,test,2,female,Latino,,,,new,,,,m,2980.0,True,False,
1,mar02,1,168,test,2,female,Black,,,,new,,,,,,False,True,
1,mar02,1,169,test,2,female,Black,,,,new,,,,z,1107.0,False,False,
1,mar02,1,170,test,2,male,Asian,,,,old,happy,male,,m,980.0,False,False,
1,mar02,1,171,test,2,female,Latino,,,,old,happy,female,,m,1412.0,False,False,
1,mar02,1,172,test,2,male,White,,,,old,happy,male,,m,1649.0,False,False,
1,mar02,1,173,test,2,male,Black,,,,new,,,,z,1716.0,False,False,
1,mar02,1,174,test,2,female,White,,,,new,,,,z,1528.0,False,False,
1,mar02,1,175,test,2,female,Asian,,,,new,,,,m,1847.0,True,False,
1,mar02,1,176,test,2,female,Black,,,,old,neutral,male,,m,2019.0,False,False,
1,mar02,1,177,test,2,female,Black,,,,old,angry,female,,z,1048.0,True,False,
1,mar02,1,178,test,2,male,Latino,,,,old,happy,female,,m,844.0,False,False,
1,mar02,1,179,test,2,female,Black,,,,new,,,,m,821.0,True,False,
1,mar02,1,180,test,2,female,White,,,,new,,,,m,763.0,True,False,
2,mar02,1,1,study,0,female,White,male,Black,angry,,,,,z,811.0,True,False,
2,mar02,1,2,study,0,male,Black,female,White,neutral,,,,,m,680.0,True,False,
2,mar02,1,3,study,0,female,Black,male,White,neutral,,,,,z,1332.0,True,False,
2,mar02,1,4,study,0,male,Asian,male,White,happy,,,,,m,773.0,True,False,
2,mar02,1,5,study,0,male,Black,male,White,angry,,,,,m,629.0,True,False,
2,mar02,1,6,study,0,male,White,female,White,neutral,,,,,m,608.0,True,False,
2,mar02,1,7,study,0,female,Black,male,Black,neutral,,,,,z,578.0,True,False,
2,mar02,1,8,study,0,female,Asian,female,White,happy,,,,,z,823.0,True,False,
2,mar02,1,9,study,0,female,Latino,male,Black,happy,,,,,z,705.0,True,False,
2,mar02,1,10,study,0,female,White,female,White,neutral,,,,,z,623.0,True,False,
2,mar02,1,11,study,0,male,White,male,Black,neutral,,,,,m,588.0,True,False,
2,mar02,1,12,study,0,male,White,female,Black,happy,,,,,m,647.0,True,False,
2,mar02,1,13,study,0,male,White,female,Black,happy,,,,,m,552.0,True,False,
2,mar02,1,14,study,0,female,Latino,male,White,angry,,,,,z,620.0,True,False,
2,mar02,1,15,study,0,female,White,female,White,angry,,,,,z,529.0,True,False,
2,mar02,1,16,study,0,female,Asian,male,Black,angry,,,,,z,592.0,True,False,
2,mar02,1,17,study,0,male,Asian,male,Black,happy,,,,,m,574.0,True,False,
2,mar02,1,18,study,0,female,Asian,female,White,happy,,,,,z,580.0,True,False,
2,mar02,1,19,study,0,female,White,female,White,neutral,,,,,z,607.0,True,False,
2,mar02,1,20,study,0,male,Black,male,Black,angry,,,,,m,588.0,True,False,
2,mar02,1,21,study,0,male,Latino,male,Black,happy,,,,,m,511.0,True,False,
2,mar02,1,22,study,0,male,White,female,Black,neutral,,,,,m,514.0,True,False,
2,mar02,1,23,study,0,male,White,female,Black,angry,,,,,m,489.0,True,False,
2,mar02,1,24,study,0,female,Asian,female,Black,angry,,,,,z,581.0,True,False,
2,mar02,1,25,study,0,male,Latino,female,Black,happy,,,,,m,727.0,True,False,
2,mar02,1,26,study,0,male,White,female,Black,happy,,,,,m,502.0,True,False,
2,mar02,1,27,study,0,female,Asian,female,White,neutral,,,,,z,474.0,True,False,
2,mar02,1,28,study,0,female,Asian,male,Black,neutral,,,,,z,588.0,True,False,
2,mar02,1,29,study,0,male,Asian,male,Black,angry,,,,,m,1301.0,True,False,
2,mar02,1,30,study,0,female,Latino,male,Black,angry,,,,,z,612.0,True,False,
2,mar02,1,31,study,1,male,Black,male,Black,neutral,,,,,m,673.0,True,False,
2,mar02,1,32,study,1,female,Asian,male,White,neutral,,,,,z,779.0,True,False,
2,mar02,1,33,study,1,male,Black,female,Black,angry,,,,,m,546.0,True,False,
2,mar02,1,34,study,1,female,Black,female,Black,happy,,,,,z,600.0,True,False,
2,mar02,1,35,study,1,male,Asian,female,Black,happy,,,,,m,1182.0,True,False,
2,mar02,1,36,study,1,female,Latino,male,Black,neutral,,,,,z,584.0,True,False,
2,mar02,1,37,study,1,male,Asian,male,White,neutral,,,,,m,667.0,True,False,
2,mar02,1,38,study,1,male,Latino,male,Black,happy,,,,,m,783.0,True,False,
2,mar02,1,39,study,1,male,White,female,White,angry,,,,,m,618.0,True,False,
2,mar02,1,40,study,1,female,White,male,Black,happy,,,,,z,734.0,True,False,
2,mar02,1,41,study,1,male,Black,female,Black,angry,,,,,m,733.0,True,False,
2,mar02,1,42,study,1,female,Latino,female,Black,happy,,,,,z,672.0,True,False,
2,mar02,1,43,study,1,female,Black,female,White,happy,,,,,z,582.0,True,False,
2,mar02,1,44,study,1,female,White,male,Black,happy,,,,,z,579.0,True,False,
2,mar02,1,45,study,1,male,White,male,Black,neutral,,,,,m,596.0,True,False,
2,mar02,1,46,study,1,female,Black,male,Black,angry,,,,,z,567.0,True,False,
2,mar02,1,47,study,1,female,Black,female,White,neutral,,,,,z,660.0,True,False,
2,mar02,1,48,study,1,male,Latino,male,Black,angry,,,,,m,783.0,True,False,
2,mar02,1,49,study,1,female,Black,male,White,happy,,,,,z,495.0,True,False,
2,mar02,1,50,study,1,female,White,female,Black,angry,,,,,z,613.0,True,False,
2,mar02,1,51,study,1,female,White,male,White,happy,,,,,z,692.0,True,False,
2,mar02,1,52,study,1,male,White,female,White,angry,,,,,m,581.0,True,False,
2,mar02,1,53,study,1,female,Latino,female,White,angry,,,,,z,675.0,True,False,
2,mar02,1,54,study,1,female,Latino,female,Black,angry,,,,,z,667.0,True,False,
2,mar02,1,55,study,1,male,White,male,Black,angry,,,,,m,540.0,True,False,
2,mar02,1,56,study,1,male,Black,male,White,neutral,,,,,z,827.0,False,False,
2,mar02,1,57,study,1,female,Black,female,Black,neutral,,,,,z,642.0,True,False,
2,mar02,1,58,study,1,male,Latino,female,Black,neutral,,,,,m,566.0,True,False,
2,mar02,1,59,study,1,male,Black,male,Black,happy,,,,,m,613.0,True,False,
2,mar02,1,60,study,1,male,White,female,Black,neutral,,,,,m,459.0,True,False,
2,mar02,1,61,test,0,female,Black,,,,old,neutral,male,,z,1023.0,True,False,
2,mar02,1,62,test,0,male,Asian,,,,old,happy,male,,z,1278.0,True,False,
2,mar02,1,63,test,0,female,Black,,,,old,neutral,female,,m,891.0,False,False,
2,mar02,1,64,test,0,male,White,,,,old,neutral,male,,m,1110.0,False,False,
2,mar02,1,65,test,0,female,Asian,,,,new,,,,m,1125.0,True,False,
2,mar02,1,66,test,0,male,Latino,,,,new,,,,m,995.0,True,False,
2,mar02,1,67,test,0,female,Latino,,,,new,,,,z,706.0,False,False,
2,mar02,1,68,test,0,male,Asian,,,,new,,,,z,979.0,False,False,
2,mar02,1,69,test,0,female,Asian,,,,old,happy,female,,z,807.0,True,False,
2,mar02,1,70,test,0,male,Latino,,,,new,,,,z,1091.0,False,False,
2,mar02,1,71,test,0,female,Latino,,,,old,neutral,male,,z,899.0,True,False,
2,mar02,1,72,test,0,female,Asian,,,,new,,,,z,1057.0,False,False,
2,mar02,1,73,test,0,female,Asian,,,,new,,,,m,750.0,True,False,
2,mar02,1,74,test,0,female,White,,,,new,,,,m,902.0,True,False,
2,mar02,1,75,test,0,male,Black,,,,new,,,,m,1199.0,True,False,
2,mar02,1,76,test,0,female,Latino,,,,old,angry,male,,z,948.0,True,False,
2,mar02,1,77,test,0,female,Asian,,,,new,,,,m,1261.0,True,False,
2,mar02,1,78,test,0,male,White,,,,new,,,,m,1059.0,True,False,
2,mar02,1,79,test,0,male,Asian,,,,old,happy,female,,z,1149.0,True,False,
2,mar02,1,80,test,0,female,Latino,,,,old,angry,male,,z,999.0,True,False,
2,mar02,1,81,test,0,female,Asian,,,,old,angry,male,,m,978.0,False,False,
2,mar02,1,82,test,0,female,Black,,,,new,,,,m,965.0,True,False,
2,mar02,1,83,test,0,male,Latino,,,,new,,,,m,1045.0,True,False,
2,mar02,1,84,test,0,male,Asian,,,,new,,,,m,921.0,True,False,
2,mar02,1,85,test,0,male,Black,,,,new,,,,m,1153.0,True,False,
2,mar02,1,86,test,0,female,Black,,,,old,neutral,female,,z,731.0,True,False,
2,mar02,1,87,test,0,female,Latino,,,,old,angry,female,,m,879.0,False,False,
2,mar02,1,88,test,0,female,White,,,,new,,,,m,877.0,True,False,
2,mar02,1,89,test,0,male,Asian,,,,old,happy,male,,z,798.0,True,False,
2,mar02,1,90,test,0,male,Asian,,,,old,angry,male,,z,870.0,True,False,
2,mar02,1,91,test,0,male,White,,,,new,,,,m,855.0,True,False,
2,mar02,1,92,test,0,female,Asian,,,,new,,,,m,758.0,True,False,
2,mar02,1,93,test,0,male,Latino,,,,new,,,,z,1000.0,False,False,
2,mar02,1,94,test,0,female,White,,,,new,,,,m,785.0,True,False,
2,mar02,1,95,test,0,female,White,,,,old,angry,female,,z,1048.0,True,False,
2,mar02,1,96,test,0,male,Asian,,,,new,,,,m,1287.0,True,False,
2,mar02,1,97,test,0,female,Latino,,,,new,,,,z,949.0,False,False,
2,mar02,1,98,test,0,male,White,,,,old,angry,female,,z,725.0,True,False,
2,mar02,1,99,test,0,male,Black,,,,new,,,,m,1217.0,True,False,
2,mar02,1,100,test,0,male,Asian,,,,new,,,,m,1106.0,True,False,
2,mar02,1,101,test,1,male,White,,,,old,angry,female,,z,1050.0,True,False,
2,mar02,1,102,test,1,male,Black,,,,old,angry,male,,m,843.0,False,False,
2,mar02,1,103,test,1,female,Black,,,,old,happy,female,,z,1023.0,True,False,
2,mar02,1,104,test,1,male,White,,,,old,angry,male,,z,792.0,True,False,
2,mar02,1,105,test,1,female,Asian,,,,new,,,,z,1190.0,False,False,
2,mar02,1,106,test,1,male,Asian,,,,old,neutral,male,,m,985.0,False,False,
2,mar02,1,107,test,1,male,Asian,,,,new,,,,m,1092.0,True,False,
2,mar02,1,108,test,1,female,Black,,,,new,,,,m,844.0,True,False,
2,mar02,1,109,test,1,male,White,,,,old,happy,female,,z,1112.0,True,False,
2,mar02,1,110,test,1,male,Black,,,,old,neutral,female,,z,944.0,True,False,
2,mar02,1,111,test,1,female,White,,,,new,,,,z,948.0,False,False,
2,mar02,1,112,test,1,female,Black,,,,new,,,,m,830.0,True,False,
2,mar02,1,113,test,1,female,Black,,,,old,happy,female,,z,1149.0,True,False,
2,mar02,1,114,test,1,male,Black,,,,old,angry,male,,z,778.0,True,False,
2,mar02,1,115,test,1,male,Asian,,,,new,,,,m,981.0,True,False,
2,mar02,1,116,test,1,male,White,,,,old,happy,female,,m,939.0,False,False,
2,mar02,1,117,test,1,female,Black,,,,new,,,,z,1234.0,False,False,
2,mar02,1,118,test,1,male,White,,,,new,,,,m,1116.0,True,False,
2,mar02,1,119,test,1,male,Black,,,,new,,,,m,948.0,True,False,
2,mar02,1,120,test,1,male,Black,,,,old,angry,female,,z,1154.0,True,False,
2,mar02,1,121,test,1,male,Black,,,,new,,,,z,981.0,False,False,
2,mar02,1,122,test,1,male,White,,,,new,,,,m,791.0,True,False,
2,mar02,1,123,test,1,male,Latino,,,,old,neutral,female,,m,1119.0,False,False,
2,mar02,1,124,test,1,female,Asian,,,,new,,,,m,862.0,True,False,
2,mar02,1,125,test,1,female,White,,,,new,,,,z,921.0,False,False,
2,mar02,1,126,test,1,female,Black,,,,new,,,,z,954.0,False,False,
2,mar02,1,127,test,1,female,White,,,,old,happy,male,,z,1021.0,True,False,
2,mar02,1,128,test,1,female,Asian,,,,new,,,,m,747.0,True,False,
2,mar02,1,129,test,1,male,Latino,,,,new,,,,m,806.0,True,False,
2,mar02,1,130,test,1,female,White,,,,old,angry,male,,m,1043.0,False,False,
2,mar02,1,131,test,1,female,Asian,,,,old,neutral,male,,z,1301.0,True,False,
2,mar02,1,132,test,1,male,White,,,,old,neutral,female,,z,1277.0,True,False,
2,mar02,1,133,test,1,female,White,,,,new,,,,m,862.0,True,False,
2,mar02,1,134,test,1,male,Black,,,,new,,,,z,1040.0,False,False,
2,mar02,1,135,test,1,male,Latino,,,,new,,,,z,927.0,False,False,
2,mar02,1,136,test,1,male,Latino,,,,old,angry,male,,z,847.0,True,False,
2,mar02,1,137,test,1,female,Asian,,,,old,neutral,female,,m,718.0,False,False,
2,mar02,1,138,test,1,female,White,,,,old,neutral,female,,z,774.0,True,False,
2,mar02,1,139,test,1,female,Asian,,,,new,,,,m,1224.0,True,False,
2,mar02,1,140,test,1,male,Latino,,,,old,happy,male,,z,951.0,True,False,
2,mar02,1,141,test,2,female,Black,,,,new,,,,z,1063.0,False,False,
2,mar02,1,142,test,2,male,Black,,,,new,,,,z,809.0,False,False,
2,mar02,1,143,test,2,female,Asian,,,,new,,,,m,969.0,True,False,
2,mar02,1,144,test,2,female,Asian,,,,old,neutral,male,,m,955.0,False,False,
2,mar02,1,145,test,2,male,White,,,,new,,,,m,807.0,True,False,
2,mar02,1,146,test,2,male,Black,,,,old,happy,male,,z,767.0,True,False,
2,mar02,1,147,test,2,female,Black,,,,new,,,,z,848.0,False,False,
2,mar02,1,148,test,2,female,White,,,,old,happy,male,,m,952.0,False,False,
2,mar02,1,149,test,2,male,White,,,,old,neutral,female,,z,1254.0,True,False,
2,mar02,1,150,test,2,male,White,,,,old,neutral,male,,m,879.0,False,False,
2,mar02,1,151,test,2,male,White,,,,new,,,,m,671.0,True,False,
2,mar02,1,152,test,2,male,Latino,,,,old,happy,male,,m,968.0,False,False,
2,mar02,1,153,test,2,female,Asian,,,,old,happy,female,,z,910.0,True,False,
2,mar02,1,154,test,2,female,Black,,,,new,,,,m,1000.0,True,False,
2,mar02,1,155,test,2,female,Black,,,,new,,,,z,958.0,False,False,
2,mar02,1,156,test,2,male,White,,,,old,happy,female,,m,1000.0,False,False,
2,mar02,1,157,test,2,female,White,,,,new,,,,m,893.0,True,False,
2,mar02,1,158,test,2,male,White,,,,old,angry,female,,z,930.0,True,False,
2,mar02,1,159,test,2,female,Asian,,,,old,angry,female,,z,1199.0,True,False,
2,mar02,1,160,test,2,male,Latino,,,,new,,,,m,830.0,True,False,
2,mar02,1,161,test,2,male,Black,,,,new,,,,m,956.0,True,False,
2,mar02,1,162,test,2,female,White,,,,old,neutral,female,,m,899.0,False,False,
2,mar02,1,163,test,2,male,Black,,,,new,,,,m,922.0,True,False,
2,mar02,1,164,test,2,male,White,,,,old,neutral,female,,m,919.0,False,False,
2,mar02,1,165,test,2,male,White,,,,new,,,,m,1098.0,True,False,
2,mar02,1,166,test,2,female,White,,,,old,angry,female,,z,926.0,True,False,
2,mar02,1,167,test,2,female,Latino,,,,old,happy,male,,m,992.0,False,False,
2,mar02,1,168,test,2,male,Latino,,,,old,happy,female,,m,829.0,False,False,
2,mar02,1,169,test,2,female,Black,,,,new,,,,m,773.0,True,False,
2,mar02,1,170,test,2,female,Black,,,,old,angry,male,,z,863.0,True,False,
2,mar02,1,171,test,2,male,Black,,,,old,neutral,male,,z,867.0,True,False,
2,mar02,1,172,test,2,female,Black,,,,new,,,,z,822.0,False,False,
2,mar02,1,173,test,2,male,Latino,,,,new,,,,m,761.0,True,False,
2,mar02,1,174,test,2,female,Latino,,,,old,angry,female,,m,703.0,False,False,
2,mar02,1,175,test,2,male,Black,,,,old,angry,female,,z,870.0,True,False,
2,mar02,1,176,test,2,female,White,,,,old,happy,male,,m,650.0,False,False,
2,mar02,1,177,test,2,female,Black,,,,old,neutral,male,,z,845.0,True,False,
2,mar02,1,178,test,2,male,Black,,,,old,neutral,male,,z,811.0,True,False,
2,mar02,1,179,test,2,female,Black,,,,old,happy,male,,z,948.0,True,False,
2,mar02,1,180,test,2,female,Latino,,,,old,happy,female,,m,732.0,False,False,
3,mar02,1,1,study,0,female,White,female,White,neutral,,,,,m,614.0,False,False,
3,mar02,1,2,study,0,male,White,male,Black,neutral,,,,,z,625.0,False,False,
3,mar02,1,3,study,0,female,Asian,male,Black,neutral,,,,,m,647.0,False,False,
3,mar02,1,4,study,0,female,Latino,male,White,angry,,,,,m,2336.0,False,False,
3,mar02,1,5,study,0,male,Black,female,White,angry,,,,,m,1545.0,True,False,
3,mar02,1,6,study,0,female,Asian,female,Black,angry,,,,,m,1150.0,False,False,
3,mar02,1,7,study,0,male,Asian,male,White,angry,,,,,z,661.0,False,False,
3,mar02,1,8,study,0,male,Black,female,Black,neutral,,,,,z,1704.0,False,False,
3,mar02,1,9,study,0,female,Black,female,Black,happy,,,,,m,942.0,False,False,
3,mar02,1,10,study,0,male,Asian,female,Black,neutral,,,,,z,1518.0,False,False,
3,mar02,1,11,study,0,male,Black,female,Black,angry,,,,,m,2188.0,True,False,
3,mar02,1,12,study,0,female,Asian,female,Black,neutral,,,,,m,773.0,False,False,
3,mar02,1,13,study,0,male,White,male,White,neutral,,,,,z,1410.0,False,False,
3,mar02,1,14,study,0,male,Latino,female,Black,angry,,,,,m,1821.0,True,False,
3,mar02,1,15,study,0,female,White,male,Black,neutral,,,,,z,1348.0,True,False,
3,mar02,1,16,study,0,male,White,male,White,angry,,,,,z,820.0,False,False,
3,mar02,1,17,study,0,female,Asian,male,White,happy,,,,,z,1507.0,True,False,
3,mar02,1,18,study,0,male,Black,male,Black,angry,,,,,z,805.0,False,False,
3,mar02,1,19,study,0,female,Latino,female,White,angry,,,,,m,809.0,False,False,
3,mar02,1,20,study,0,male,White,male,Black,happy,,,,,z,1298.0,False,False,
3,mar02,1,21,study,0,male,Asian,female,White,happy,,,,,m,1335.0,True,False,
3,mar02,1,22,study,0,female,Latino,male,Black,angry,,,,,z,1725.0,True,False,
3,mar02,1,23,study,0,female,Black,male,Black,happy,,,,,z,779.0,True,False,
3,mar02,1,24,study,0,female,Latino,female,White,neutral,,,,,m,895.0,False,False,
3,mar02,1,25,study,0,male,Latino,male,Black,happy,,,,,z,569.0,False,False,
3,mar02,1,26,study,0,male,White,male,White,happy,,,,,z,732.0,False,False,
3,mar02,1,27,study,0,female,Latino,female,White,happy,,,,,m,555.0,False,False,
3,mar02,1,28,study,0,female,White,female,Black,angry,,,,,m,760.0,False,False,
3,mar02,1,29,study,0,female,Latino,female,White,happy,,,,,m,607.0,False,False,
3,mar02,1,30,study,0,male,Black,female,Black,neutral,,,,,z,527.0,False,False,
3,mar02,1,31,study,1,female,White,female,Black,happy,,,,,m,727.0,False,False,
3,mar02,1,32,study,1,female,White,male,White,angry,,,,,z,1066.0,True,False,
3,mar02,1,33,study,1,male,Black,male,White,angry,,,,,z,564.0,False,False,
3,mar02,1,34,study,1,male,Latino,female,Black,happy,,,,,m,1081.0,True,False,
3,mar02,1,35,study,1,female,Black,male,Black,angry,,,,,z,885.0,True,False,
3,mar02,1,36,study,1,male,White,male,White,neutral,,,,,z,1050.0,False,False,
3,mar02,1,37,study,1,male,White,female,Black,happy,,,,,m,1523.0,True,False,
3,mar02,1,38,study,1,female,White,male,Black,happy,,,,,z,592.0,True,False,
3,mar02,1,39,study,1,male,White,female,White,angry,,,,,m,909.0,True,False,
3,mar02,1,40,study,1,female,White,female,White,neutral,,,,,m,915.0,False,False,
3,mar02,1,41,study,1,male,Black,female,White,happy,,,,,z,513.0,False,False,
3,mar02,1,42,study,1,male,White,female,Black,neutral,,,,,m,953.0,True,False,
3,mar02,1,43,study,1,male,Asian,male,Black,happy,,,,,z,771.0,False,False,
3,mar02,1,44,study,1,male,White,male,White,angry,,,,,z,645.0,False,False,
3,mar02,1,45,study,1,female,Black,female,Black,happy,,,,,m,1555.0,False,False,
3,mar02,1,46,study,1,female,Latino,male,White,happy,,,,,z,882.0,True,False,
3,mar02,1,47,study,1,female,Black,male,Black,neutral,,,,,z,976.0,True,False,
3,mar02,1,48,study,1,male,Black,male,White,happy,,,,,z,996.0,False,False,
3,mar02,1,49,study,1,female,Black,female,White,neutral,,,,,m,878.0,False,False,
3,mar02,1,50,study,1,female,Latino,male,White,neutral,,,,,z,663.0,True,False,
3,mar02,1,51,study,1,female,White,female,Black,angry,,,,,m,699.0,False,False,
3,mar02,1,52,study,1,male,Asian,male,Black,neutral,,,,,z,800.0,False,False,
3,mar02,1,53,study,1,female,White,male,Black,angry,,,,,z,1095.0,True,False,
3,mar02,1,54,study,1,male,Black,female,White,neutral,,,,,m,1154.0,True,False,
3,mar02,1,55,study,1,female,Black,male,Black,happy,,,,,z,561.0,True,False,
3,mar02,1,56,study,1,male,Latino,female,White,angry,,,,,m,1164.0,True,False,
3,mar02,1,57,study,1,male,Asian,female,Black,happy,,,,,z,1385.0,False,False,
3,mar02,1,58,study,1,male,Latino,male,Black,neutral,,,,,z,673.0,False,False,
3,mar02,1,59,study,1,female,Asian,male,White,neutral,,,,,z,1333.0,True,False,
3,mar02,1,60,study,1,female,White,female,Black,angry,,,,,m,625.0,False,False,
3,mar02,1,61,test,0,male,Black,,,,new,,,,z,794.0,True,False,
3,mar02,1,62,test,0,male,White,,,,old,angry,male,,m,1098.0,True,False,
3,mar02,1,63,test,0,female,White,,,,new,,,,z,616.0,True,False,
3,mar02,1,64,test,0,male,Latino,,,,new,,,,z,1046.0,True,False,
3,mar02,1,65,test,0,male,Black,,,,old,neutral,female,,m,668.0,True,False,
3,mar02,1,66,test,0,female,Asian,,,,old,neutral,female,,z,968.0,False,False,
3,mar02,1,67,test,0,male,White,,,,new,,,,z,803.0,True,False,
3,mar02,1,68,test,0,female,Black,,,,old,happy,female,,z,725.0,False,False,
3,mar02,1,69,test,0,female,Latino,,,,new,,,,z,1281.0,True,False,
3,mar02,1,70,test,0,female,White,,,,old,angry,female,,z,858.0,False,False,
3,mar02,1,71,test,0,female,Black,,,,old,happy,female,,z,757.0,False,False,
3,mar02,1,72,test,0,male,White,,,,old,happy,female,,m,1070.0,True,False,
3,mar02,1,73,test,0,male,Latino,,,,new,,,,z,827.0,True,False,
3,mar02,1,74,test,0,female,White,,,,new,,,,z,873.0,True,False,
3,mar02,1,75,test,0,male,Asian,,,,new,,,,m,822.0,False,False,
3,mar02,1,76,test,0,female,Latino,,,,old,happy,female,,z,975.0,False,False,
3,mar02,1,77,test,0,male,White,,,,old,angry,male,,m,1010.0,True,False,
3,mar02,1,78,test,0,female,White,,,,new,,,,m,1108.0,False,False,
3,mar02,1,79,test,0,female,Latino,,,,old,happy,female,,m,1590.0,True,False,
3,mar02,1,80,test,0,female,Latino,,,,old,neutral,female,,z,1288.0,False,False,
3,mar02,1,81,test,0,male,White,,,,new,,,,z,869.0,True,False,
3,mar02,1,82,test,0,male,Asian,,,,old,happy,female,,z,866.0,False,False,
3,mar02,1,83,test,0,female,Latino,,,,old,angry,male,,m,1252.0,True,False,
3,mar02,1,84,test,0,male,Black,,,,new,,,,z,665.0,True,False,
3,mar02,1,85,test,0,female,Black,,,,new,,,,z,2225.0,True,False,
3,mar02,1,86,test,0,male,Black,,,,new,,,,z,1262.0,True,False,
3,mar02,1,87,test,0,female,Black,,,,new,,,,z,1365.0,True,False,
3,mar02,1,88,test,0,male,Black,,,,new,,,,m,837.0,False,False,
3,mar02,1,89,test,0,female,Black,,,,new,,,,z,739.0,True,False,
3,mar02,1,90,test,0,female,Latino,,,,new,,,,z,1236.0,True,False,
3,mar02,1,91,test,0,male,Latino,,,,new,,,,m,1568.0,False,False,
3,mar02,1,92,test,0,male,Black,,,,old,angry,male,,,,False,True,
3,mar02,1,93,test,0,male,Asian,,,,new,,,,z,932.0,True,False,
3,mar02,1,94,test,0,female,Asian,,,,new,,,,z,978.0,True,False,
3,mar02,1,95,test,0,female,White,,,,old,happy,female,,z,734.0,False,False,
3,mar02,1,96,test,0,male,Latino,,,,old,happy,male,,z,921.0,False,False,
3,mar02,1,97,test,0,male,Black,,,,new,,,,z,640.0,True,False,
3,mar02,1,98,test,0,male,Black,,,,old,angry,female,,z,790.0,False,False,
3,mar02,1,99,test,0,female,Latino,,,,old,angry,male,,z,654.0,False,False,
3,mar02,1,100,test,0,female,Latino,,,,old,neutral,male,,m,906.0,True,False,
3,mar02,1,101,test,1,male,Asian,,,,new,,,,m,888.0,False,False,
3,mar02,1,102,test,1,male,Latino,,,,new,,,,z,672.0,True,False,
3,mar02,1,103,test,1,female,Black,,,,old,happy,male,,m,709.0,True,False,
3,mar02,1,104,test,1,female,White,,,,new,,,,z,543.0,True,False,
3,mar02,1,105,test,1,female,White,,,,new,,,,m,862.0,False,False,
3,mar02,1,106,test,1,female,Asian,,,,new,,,,z,1155.0,True,False,
3,mar02,1,107,test,1,male,White,,,,new,,,,z,699.0,True,False,
3,mar02,1,108,test,1,female,Asian,,,,new,,,,z,603.0,True,False,
3,mar02,1,109,test,1,female,White,,,,old,neutral,male,,m,2000.0,True,False,
3,mar02,1,110,test,1,male,Asian,,,,old,neutral,male,,z,742.0,False,False,
3,mar02,1,111,test,1,female,Latino,,,,new,,,,z,690.0,True,False,
3,mar02,1,112,test,1,male,Latino,,,,old,happy,female,,z,2191.0,False,False,
3,mar02,1,113,test,1,male,White,,,,old,neutral,male,,z,774.0,False,False,
3,mar02,1,114,test,1,female,White,,,,old,neutral,female,,z,1489.0,False,False,
3,mar02,1,115,test,1,female,White,,,,old,angry,male,,z,858.0,False,False,
3,mar02,1,116,test,1,male,White,,,,old,happy,male,,z,764.0,False,False,
3,mar02,1,117,test,1,male,White,,,,new,,,,z,908.0,True,False,
3,mar02,1,118,test,1,male,Asian,,,,old,happy,female,,z,706.0,False,False,
3,mar02,1,119,test,1,female,White,,,,new,,,,m,1423.0,False,False,
3,mar02,1,120,test,1,male,Asian,,,,old,happy,male,,z,677.0,False,False,
3,mar02,1,121,test,1,male,White,,,,new,,,,z,804.0,True,False,
3,mar02,1,122,test,1,male,White,,,,new,,,,z,725.0,True,False,
3,mar02,1,123,test,1,female,Asian,,,,old,happy,male,,,,False,True,
3,mar02,1,124,test,1,female,Black,,,,new,,,,z,1503.0,True,False,
3,mar02,1,125,test,1,male,Black,,,,new,,,,z,1035.0,True,False,
3,mar02,1,126,test,1,female,Asian,,,,new,,,,z,597.0,True,False,
3,mar02,1,127,test,1,male,White,,,,old,neutral,male,,z,797.0,False,False,
3,mar02,1,128,test,1,female,White,,,,old,happy,male,,z,614.0,False,False,
3,mar02,1,129,test,1,male,White,,,,old,angry,female,,z,645.0,False,False,
3,mar02,1,130,test,1,female,Asian,,,,new,,,,z,828.0,True,False,
3,mar02,1,131,test,1,female,Asian,,,,old,neutral,male,,z,649.0,False,False,
3,mar02,1,132,test,1,female,Black,,,,new,,,,z,1231.0,True,False,
3,mar02,1,133,test,1,male,Black,,,,old,angry,female,,z,709.0,False,False,
3,mar02,1,134,test,1,female,Latino,,,,new,,,,z,873.0,True,False,
3,mar02,1,135,test,1,male,Black,,,,old,neutral,female,,z,1081.0,False,False,
3,mar02,1,136,test,1,female,White,,,,new,,,,z,859.0,True,False,
3,mar02,1,137,test,1,male,Latino,,,,old,neutral,male,,z,1601.0,False,False,
3,mar02,1,138,test,1,female,White,,,,new,,,,z,1081.0,True,False,
3,mar02,1,139,test,1,female,Latino,,,,old,angry,female,,z,617.0,False,False,
3,mar02,1,140,test,1,female,White,,,,new,,,,z,496.0,True,False,
3,mar02,1,141,test,2,male,Black,,,,old,happy,male,,m,1070.0,True,False,
3,mar02,1,142,test,2,female,Latino,,,,new,,,,z,800.0,True,False,
3,mar02,1,143,test,2,male,White,,,,new,,,,z,688.0,True,False,
3,mar02,1,144,test,2,male,Latino,,,,old,angry,female,,z,988.0,False,False,
3,mar02,1,145,test,2,female,White,,,,old,angry,female,,z,519.0,False,False,
3,mar02,1,146,test,2,female,White,,,,old,angry,female,,m,620.0,True,False,
3,mar02,1,147,test,2,female,Black,,,,old,angry,male,,z,811.0,False,False,
3,mar02,1,148,test,2,male,White,,,,old,neutral,male,,z,854.0,False,False,
3,mar02,1,149,test,2,male,Black,,,,new,,,,z,860.0,True,False,
3,mar02,1,150,test,2,female,Black,,,,old,neutral,male,,z,1392.0,False,False,
3,mar02,1,151,test,2,male,Asian,,,,new,,,,z,636.0,True,False,
3,mar02,1,152,test,2,female,Latino,,,,old,happy,male,,z,574.0,False,False,
3,mar02,1,153,test,2,female,Black,,,,new,,,,z,549.0,True,False,
3,mar02,1,154,test,2,female,Black,,,,new,,,,z,978.0,True,False,
3,mar02,1,155,test,2,female,Asian,,,,old,neutral,male,,z,1896.0,False,False,
3,mar02,1,156,test,2,female,Asian,,,,new,,,,z,644.0,True,False,
3,mar02,1,157,test,2,male,Black,,,,new,,,,z,1184.0,True,False,
3,mar02,1,158,test,2,female,White,,,,old,neutral,female,,z,544.0,False,False,
3,mar02,1,159,test,2,male,White,,,,new,,,,z,715.0,True,False,
3,mar02,1,160,test,2,male,White,,,,new,,,,z,533.0,True,False,
3,mar02,1,161,test,2,male,Asian,,,,old,neutral,female,,z,1129.0,False,False,
3,mar02,1,162,test,2,male,Black,,,,old,neutral,female,,z,2926.0,False,False,
3,mar02,1,163,test,2,female,White,,,,new,,,,z,1104.0,True,False,
3,mar02,1,164,test,2,female,Black,,,,old,happy,male,,z,1186.0,False,False,
3,mar02,1,165,test,2,male,Asian,,,,new,,,,,,False,True,
3,mar02,1,166,test,2,male,Asian,,,,old,angry,male,,z,875.0,False,False,
3,mar02,1,167,test,2,male,White,,,,new,,,,z,1527.0,True,False,
3,mar02,1,168,test,2,female,White,,,,new,,,,z,844.0,True,False,
3,mar02,1,169,test,2,male,Latino,,,,old,angry,female,,m,633.0,True,False,
3,mar02,1,170,test,2,male,White,,,,old,neutral,female,,z,603.0,False,False,
3,mar02,1,171,test,2,male,Black,,,,new,,,,z,890.0,True,False,
3,mar02,1,172,test,2,male,White,,,,old,happy,male,,z,825.0,False,False,
3,mar02,1,173,test,2,male,Black,,,,old,happy,female,,z,723.0,False,False,
3,mar02,1,174,test,2,female,Asian,,,,old,angry,female,,z,829.0,False,False,
3,mar02,1,175,test,2,male,Latino,,,,new,,,,z,667.0,True,False,
3,mar02,1,176,test,2,female,Asian,,,,new,,,,m,1538.0,False,False,
3,mar02,1,177,test,2,female,Black,,,,old,neutral,female,,z,1715.0,False,False,
3,mar02,1,178,test,2,male,Asian,,,,new,,,,z,722.0,True,False,
3,mar02,1,179,test,2,male,Black,,,,old,angry,male,,m,1031.0,True,False,
3,mar02,1,180,test,2,female,White,,,,old,angry,male,,z,703.0,False,False,
4,mar02,1,1,study,0,female,Asian,male,White,happy,,,,,m,1665.0,False,False,
4,mar02,1,2,study,0,male,Black,female,Black,neutral,,,,,m,1761.0,True,False,
4,mar02,1,3,study,0,male,White,female,White,neutral,,,,,m,1522.0,True,False,
4,mar02,1,4,study,0,female,White,female,White,angry,,,,,z,905.0,True,False,
4,mar02,1,5,study,0,male,Latino,male,White,neutral,,,,,m,1319.0,True,False,
4,mar02,1,6,study,0,female,Asian,male,Black,neutral,,,,,z,1037.0,True,False,
4,mar02,1,7,study,0,female,White,male,White,neutral,,,,,z,800.0,True,False,
4,mar02,1,8,study,0,male,Asian,male,White,neutral,,,,,m,1159.0,True,False,
4,mar02,1,9,study,0,female,White,male,White,angry,,,,,z,1118.0,True,False,
4,mar02,1,10,study,0,male,Black,female,White,angry,,,,,m,823.0,True,False,
4,mar02,1,11,study,0,female,Latino,female,White,neutral,,,,,z,1033.0,True,False,
4,mar02,1,12,study,0,female,Latino,female,White,neutral,,,,,m,1337.0,False,False,
4,mar02,1,13,study,0,female,White,female,White,happy,,,,,z,1565.0,True,False,
4,mar02,1,14,study,0,male,Asian,female,White,neutral,,,,,m,1423.0,True,False,
4,mar02,1,15,study,0,male,Asian,female,Black,neutral,,,,,m,662.0,True,False,
4,mar02,1,16,study,0,female,White,female,White,angry,,,,,m,380.0,False,False,
4,mar02,1,17,study,0,male,Latino,female,Black,angry,,,,,z,1869.0,False,False,
4,mar02,1,18,study,0,male,White,female,White,angry,,,,,m,1182.0,True,False,
4,mar02,1,19,study,0,female,Asian,male,Black,neutral,,,,,z,1103.0,True,False,
4,mar02,1,20,study,0,female,Asian,male,White,angry,,,,,z,1086.0,True,False,
4,mar02,1,21,study,0,male,White,male,White,angry,,,,,m,2689.0,True,False,
4,mar02,1,22,study,0,male,Asian,male,White,neutral,,,,,m,1967.0,True,False,
4,mar02,1,23,study,0,female,Asian,female,Black,angry,,,,,z,760.0,True,False,
4,mar02,1,24,study,0,male,Latino,male,Black,neutral,,,,,z,1191.0,False,False,
4,mar02,1,25,study,0,female,Black,male,White,happy,,,,,z,973.0,True,False,
4,mar02,1,26,study,0,male,Black,female,White,happy,,,,,m,795.0,True,False,
4,mar02,1,27,study,0,male,Asian,female,Black,happy,,,,,m,841.0,True,False,
4,mar02,1,28,study,0,female,Asian,male,Black,neutral,,,,,z,633.0,True,False,
4,mar02,1,29,study,0,female,White,male,Black,angry,,,,,z,697.0,True,False,
4,mar02,1,30,study,0,male,Latino,female,Black,neutral,,,,,m,710.0,True,False,
4,mar02,1,31,study,1,male,White,female,White,happy,,,,,z,1613.0,False,False,
4,mar02,1,32,study,1,female,Latino,female,White,neutral,,,,,m,1645.0,False,False,
4,mar02,1,33,study,1,female,White,female,White,neutral,,,,,z,1170.0,True,False,
4,mar02,1,34,study,1,male,White,male,Black,happy,,,,,m,812.0,True,False,
4,mar02,1,35,study,1,male,White,female,White,happy,,,,,m,1358.0,True,False,
4,mar02,1,36,study,1,male,Latino,female,White,angry,,,,,m,912.0,True,False,
4,mar02,1,37,study,1,male,White,male,Black,neutral,,,,,,,False,True,
4,mar02,1,38,study,1,female,Asian,female,White,angry,,,,,z,764.0,True,False,
4,mar02,1,39,study,1,male,White,female,Black,happy,,,,,m,955.0,True,False,
4,mar02,1,40,study,1,male,Asian,male,White,happy,,,,,m,1065.0,True,False,
4,mar02,1,41,study,1,male,Black,male,White,happy,,,,,m,942.0,True,False,
4,mar02,1,42,study,1,female,Asian,female,White,angry,,,,,z,945.0,True,False,
4,mar02,1,43,study,1,male,White,male,White,angry,,,,,m,967.0,True,False,
4,mar02,1,44,study,1,female,White,female,Black,happy,,,,,m,458.0,False,False,
4,mar02,1,45,study,1,female,Black,male,Black,happy,,,,,z,764.0,True,False,
4,mar02,1,46,study,1,male,Black,male,White,angry,,,,,m,2834.0,True,False,
4,mar02,1,47,study,1,female,Black,female,White,neutral,,,,,z,637.0,True,False,
4,mar02,1,48,study,1,female,Asian,male,White,neutral,,,,,z,826.0,True,False,
4,mar02,1,49,study,1,female,Black,male,Black,angry,,,,,m,1537.0,False,False,
4,mar02,1,50,study,1,male,White,male,Black,angry,,,,,m,648.0,True,False,
4,mar02,1,51,study,1,female,Black,male,White,happy,,,,,m,2699.0,False,False,
4,mar02,1,52,study,1,female,White,female,Black,happy,,,,,z,644.0,True,False,
4,mar02,1,53,study,1,female,White,female,Black,happy,,,,,z,733.0,True,False,
4,mar02,1,54,study,1,male,White,male,White,happy,,,,,m,681.0,True,False,
4,mar02,1,55,study,1,female,White,male,White,happy,,,,,m,2000.0,False,False,
4,mar02,1,56,study,1,male,Black,female,Black,angry,,,,,m,941.0,True,False,
4,mar02,1,57,study,1,male,Latino,male,Black,angry,,,,,m,1013.0,True,False,
4,mar02,1,58,study,1,female,White,female,Black,happy,,,,,m,1794.0,False,False,
4,mar02,1,59,study,1,female,Black,male,White,angry,,,,,z,840.0,True,False,
4,mar02,1,60,study,1,male,Asian,male,White,happy,,,,,m,190.0,True,False,
4,mar02,1,61,test,0,male,Asian,,,,new,,,,m,1073.0,False,False,
4,mar02,1,62,test,0,female,Black,,,,old,neutral,female,,m,1296.0,True,False,
4,mar02,1,63,test,0,male,White,,,,new,,,,z,891.0,True,False,
4,mar02,1,64,test,0,male,White,,,,old,happy,female,,z,751.0,False,False,
4,mar02,1,65,test,0,female,Latino,,,,new,,,,m,758.0,False,False,
4,mar02,1,66,test,0,female,Latino,,,,old,neutral,female,,z,890.0,False,False,
4,mar02,1,67,test,0,male,White,,,,old,happy,male,,m,1063.0,True,False,
4,mar02,1,68,test,0,male,White,,,,new,,,,z,1068.0,True,False,
4,mar02,1,69,test,0,male,Latino,,,,old,neutral,female,,z,754.0,False,False,
4,mar02,1,70,test,0,female,Asian,,,,old,angry,female,,z,830.0,False,False,
4,mar02,1,71,test,0,male,Asian,,,,old,happy,male,,m,2988.0,True,False,
4,mar02,1,72,test,0,male,Asian,,,,old,happy,female,,z,968.0,False,False,
4,mar02,1,73,test,0,female,Asian,,,,old,happy,male,,z,763.0,False,False,
4,mar02,1,74,test,0,male,White,,,,old,happy,male,,m,977.0,True,False,
4,mar02,1,75,test,0,female,Latino,,,,new,,,,z,858.0,True,False,
4,mar02,1,76,test,0,male,Black,,,,new,,,,z,800.0,True,False,
4,mar02,1,77,test,0,male,Black,,,,new,,,,z,698.0,True,False,
4,mar02,1,78,test,0,female,Black,,,,new,,,,z,663.0,True,False,
4,mar02,1,79,test,0,male,Asian,,,,old,neutral,male,,m,2739.0,True,False,
4,mar02,1,80,test,0,female,Asian,,,,new,,,,m,1031.0,False,False,
4,mar02,1,81,test,0,male,Latino,,,,old,neutral,male,,z,963.0,False,False,
4,mar02,1,82,test,0,female,White,,,,old,happy,female,,m,646.0,True,False,
4,mar02,1,83,test,0,female,White,,,,old,angry,male,,m,762.0,True,False,
4,mar02,1,84,test,0,female,Latino,,,,new,,,,z,727.0,True,False,
4,mar02,1,85,test,0,female,Asian,,,,old,neutral,male,,m,787.0,True,False,
4,mar02,1,86,test,0,male,Latino,,,,old,neutral,male,,z,705.0,False,False,
4,mar02,1,87,test,0,male,Black,,,,new,,,,m,661.0,False,False,
4,mar02,1,88,test,0,female,White,,,,old,angry,female,,z,545.0,False,False,
4,mar02,1,89,test,0,female,White,,,,old,neutral,female,,m,515.0,True,False,
4,mar02,1,90,test,0,female,White,,,,new,,,,z,562.0,True,False,
4,mar02,1,91,test,0,male,Asian,,,,new,,,,z,628.0,True,False,
4,mar02,1,92,test,0,male,White,,,,old,angry,male,,z,683.0,False,False,
4,mar02,1,93,test,0,female,Latino,,,,old,neutral,female,,z,732.0,False,False,
4,mar02,1,94,test,0,male,Black,,,,old,angry,female,,z,1723.0,False,False,
4,mar02,1,95,test,0,female,Latino,,,,new,,,,m,1044.0,False,False,
4,mar02,1,96,test,0,male,Asian,,,,new,,,,z,741.0,True,False,
4,mar02,1,97,test,0,female,Asian,,,,old,angry,male,,z,706.0,False,False,
4,mar02,1,98,test,0,male,Asian,,,,new,,,,m,648.0,False,False,
4,mar02,1,99,test,0,female,Black,,,,new,,,,m,1350.0,False,False,
4,mar02,1,100,test,0,female,Black,,,,new,,,,z,744.0,True,False,
4,mar02,1,101,test,1,male,White,,,,new,,,,z,1025.0,True,False,
4,mar02,1,102,test,1,female,White,,,,old,happy,female,,z,701.0,False,False,
4,mar02,1,103,test,1,female,Latino,,,,new,,,,m,640.0,False,False,
4,mar02,1,104,test,1,female,White,,,,new,,,,z,581.0,True,False,
4,mar02,1,105,test,1,male,Black,,,,old,happy,female,,z,581.0,False,False,
4,mar02,1,106,test,1,male,Black,,,,old,angry,male,,m,677.0,True,False,
4,mar02,1,107,test,1,female,White,,,,new,,,,z,548.0,True,False,
4,mar02,1,108,test,1,female,Asian,,,,old,angry,female,,m,832.0,True,False,
4,mar02,1,109,test,1,male,Latino,,,,new,,,,m,574.0,False,False,
4,mar02,1,110,test,1,male,Black,,,,new,,,,m,741.0,False,False,
4,mar02,1,111,test,1,female,Black,,,,new,,,,z,566.0,True,False,
4,mar02,1,112,test,1,female,White,,,,new,,,,z,558.0,True,False,
4,mar02,1,113,test,1,female,Asian,,,,new,,,,z,573.0,True,False,
4,mar02,1,114,test,1,male,Latino,,,,new,,,,z,439.0,True,False,
4,mar02,1,115,test,1,male,Asian,,,,old,neutral,male,,z,562.0,False,False,
4,mar02,1,116,test,1,female,Latino,,,,new,,,,m,486.0,False,False,
4,mar02,1,117,test,1,male,Latino,,,,new,,,,z,829.0,True,False,
4,mar02,1,118,test,1,male,Latino,,,,old,angry,female,,z,725.0,False,False,
4,mar02,1,119,test,1,female,Black,,,,old,happy,male,,z,566.0,False,False,
4,mar02,1,120,test,1,male,Latino,,,,new,,,,z,471.0,True,False,
4,mar02,1,121,test,1,male,White,,,,old,neutral,female,,z,462.0,False,False,
4,mar02,1,122,test,1,male,Black,,,,old,neutral,female,,z,411.0,False,False,
4,mar02,1,123,test,1,female,White,,,,old,happy,female,,z,368.0,False,False,
4,mar02,1,124,test,1,female,Asian,,,,old,angry,female,,z,401.0,False,False,
4,mar02,1,125,test,1,female,White,,,,new,,,,m,574.0,False,False,
4,mar02,1,126,test,1,female,White,,,,new,,,,z,524.0,True,False,
4,mar02,1,127,test,1,female,White,,,,new,,,,z,509.0,True,False,
4,mar02,1,128,test,1,male,Black,,,,new,,,,z,543.0,True,False,
4,mar02,1,129,test,1,female,Latino,,,,new,,,,m,477.0,False,False,
4,mar02,1,130,test,1,male,Asian,,,,old,neutral,female,,z,555.0,False,False,
4,mar02,1,131,test,1,male,Black,,,,old,angry,female,,z,500.0,False,False,
4,mar02,1,132,test,1,female,Asian,,,,old,neutral,male,,z,11.0,False,False,
4,mar02,1,133,test,1,female,White,,,,old,angry,male,,z,521.0,False,False,
4,mar02,1,134,test,1,male,Latino,,,,old,angry,male,,z,631.0,False,False,
4,mar02,1,135,test,1,male,Black,,,,old,happy,male,,m,505.0,True,False,
4,mar02,1,136,test,1,female,White,,,,old,neutral,male,,z,860.0,False,False,
4,mar02,1,137,test,1,female,White,,,,old,angry,female,,z,625.0,False,False,
4,mar02,1,138,test,1,male,White,,,,new,,,,z,232.0,True,False,
4,mar02,1,139,test,1,female,Asian,,,,old,neutral,male,,z,545.0,False,False,
4,mar02,1,140,test,1,female,Black,,,,new,,,,z,1249.0,True,False,
4,mar02,1,141,test,2,male,White,,,,old,angry,male,,z,717.0,False,False,
4,mar02,1,142,test,2,female,Black,,,,old,angry,male,,z,571.0,False,False,
4,mar02,1,143,test,2,female,White,,,,old,happy,female,,z,590.0,False,False,
4,mar02,1,144,test,2,male,Asian,,,,new,,,,z,571.0,True,False,
4,mar02,1,145,test,2,male,Latino,,,,old,angry,female,,m,627.0,True,False,
4,mar02,1,146,test,2,female,Latino,,,,new,,,,z,500.0,True,False,
4,mar02,1,147,test,2,male,Asian,,,,new,,,,z,677.0,True,False,
4,mar02,1,148,test,2,female,Black,,,,old,happy,male,,m,561.0,True,False,
4,mar02,1,149,test,2,female,Black,,,,old,angry,male,,m,308.0,True,False,
4,mar02,1,150,test,2,male,Black,,,,new,,,,z,401.0,True,False,
4,mar02,1,151,test,2,female,Asian,,,,old,neutral,male,,z,656.0,False,False,
4,mar02,1,152,test,2,male,Asian,,,,old,happy,male,,m,586.0,True,False,
4,mar02,1,153,test,2,female,White,,,,old,happy,female,,m,490.0,True,False,
4,mar02,1,154,test,2,male,White,,,,old,angry,male,,z,655.0,False,False,
4,mar02,1,155,test,2,female,White,,,,new,,,,z,593.0,True,False,
4,mar02,1,156,test,2,male,White,,,,new,,,,z,604.0,True,False,
4,mar02,1,157,test,2,male,Latino,,,,new,,,,z,684.0,True,False,
4,mar02,1,158,test,2,female,Black,,,,new,,,,m,562.0,False,False,
4,mar02,1,159,test,2,male,Black,,,,new,,,,z,607.0,True,False,
4,mar02,1,160,test,2,male,White,,,,old,happy,female,,z,560.0,False,False,
4,mar02,1,161,test,2,female,Black,,,,new,,,,z,710.0,True,False,
4,mar02,1,162,test,2,female,Black,,,,new,,,,m,561.0,False,False,
4,mar02,1,163,test,2,female,Latino,,,,new,,,,m,498.0,False,False,
4,mar02,1,164,test,2,male,White,,,,old,happy,female,,m,385.0,True,False,
4,mar02,1,165,test,2,male,White,,,,new,,,,m,438.0,False,False,
4,mar02,1,166,test,2,female,Black,,,,old,happy,male,,z,469.0,False,False,
4,mar02,1,167,test,2,male,Latino,,,,new,,,,m,488.0,False,False,
4,mar02,1,168,test,2,male,White,,,,new,,,,z,268.0,True,False,
4,mar02,1,169,test,2,male,Asian,,,,old,neutral,female,,m,444.0,True,False,
4,mar02,1,170,test,2,female,Black,,,,new,,,,m,680.0,False,False,
4,mar02,1,171,test,2,male,Latino,,,,new,,,,m,659.0,False,False,
4,mar02,1,172,test,2,male,White,,,,new,,,,z,774.0,True,False,
4,mar02,1,173,test,2,female,White,,,,old,happy,male,,z,594.0,False,False,
4,mar02,1,174,test,2,female,Latino,,,,old,neutral,female,,z,584.0,False,False,
4,mar02,1,175,test,2,female,White,,,,new,,,,m,496.0,False,False,
4,mar02,1,176,test,2,male,White,,,,old,angry,female,,z,705.0,False,False,
4,mar02,1,177,test,2,male,White,,,,new,,,,z,576.0,True,False,
4,mar02,1,178,test,2,male,White,,,,new,,,,z,591.0,True,False,
4,mar02,1,179,test,2,female,Black,,,,new,,,,m,617.0,False,False,
4,mar02,1,180,test,2,male,White,,,,old,neutral,male,,m,688.0,True,False,
5,mar02,1,1,study,0,male,Asian,female,Black,angry,,,,,m,456.0,True,False,
5,mar02,1,2,study,0,male,Latino,female,Black,happy,,,,,m,505.0,True,False,
5,mar02,1,3,study,0,female,Black,female,Black,angry,,,,,z,565.0,True,False,
5,mar02,1,4,study,0,male,Black,male,White,neutral,,,,,z,1521.0,False,False,
5,mar02,1,5,study,0,male,Asian,female,Black,angry,,,,,m,557.0,True,False,
5,mar02,1,6,study,0,female,White,female,White,neutral,,,,,z,689.0,True,False,
5,mar02,1,7,study,0,female,Latino,female,Black,angry,,,,,z,609.0,True,False,
5,mar02,1,8,study,0,male,Latino,male,White,happy,,,,,m,770.0,True,False,
5,mar02,1,9,study,0,male,Asian,male,Black,happy,,,,,m,557.0,True,False,
5,mar02,1,10,study,0,male,Latino,male,Black,neutral,,,,,m,609.0,True,False,
5,mar02,1,11,study,0,female,Asian,male,Black,neutral,,,,,z,785.0,True,False,
5,mar02,1,12,study,0,female,White,male,Black,happy,,,,,z,756.0,True,False,
5,mar02,1,13,study,0,male,Black,female,Black,happy,,,,,m,507.0,True,False,
5,mar02,1,14,study,0,female,Black,male,White,happy,,,,,z,795.0,True,False,
5,mar02,1,15,study,0,male,White,female,Black,neutral,,,,,m,525.0,True,False,
5,mar02,1,16,study,0,male,Latino,male,White,happy,,,,,m,858.0,True,False,
5,mar02,1,17,study,0,male,White,male,White,neutral,,,,,m,980.0,True,False,
5,mar02,1,18,study,0,female,Black,male,Black,neutral,,,,,z,624.0,True,False,
5,mar02,1,19,study,0,female,White,female,Black,angry,,,,,z,714.0,True,False,
5,mar02,1,20,study,0,female,White,male,Black,angry,,,,,z,833.0,True,False,
5,mar02,1,21,study,0,female,Asian,male,White,happy,,,,,z,692.0,True,False,
5,mar02,1,22,study,0,female,Black,female,Black,happy,,,,,z,758.0,True,False,
5,mar02,1,23,study,0,male,White,male,White,angry,,,,,m,1103.0,True,False,
5,mar02,1,24,study,0,female,Black,male,Black,happy,,,,,z,822.0,True,False,
5,mar02,1,25,study,0,male,Asian,female,White,neutral,,,,,m,725.0,True,False,
5,mar02,1,26,study,0,female,Asian,female,White,neutral,,,,,z,739.0,True,False,
5,mar02,1,27,study,0,female,Black,male,White,angry,,,,,z,959.0,True,False,
5,mar02,1,28,study,0,female,Latino,male,Black,neutral,,,,,z,1961.0,True,False,
5,mar02,1,29,study,0,female,White,female,Black,neutral,,,,,z,1125.0,True,False,
5,mar02,1,30,study,0,male,Black,female,Black,happy,,,,,m,875.0,True,False,
5,mar02,1,31,study,1,male,White,male,White,angry,,,,,m,567.0,True,False,
5,mar02,1,32,study,1,female,White,female,White,happy,,,,,z,867.0,True,False,
5,mar02,1,33,study,1,male,Latino,male,White,neutral,,,,,m,675.0,True,False,
5,mar02,1,34,study,1,female,Latino,male,White,neutral,,,,,z,672.0,True,False,
5,mar02,1,35,study,1,female,Latino,male,Black,happy,,,,,z,906.0,True,False,
5,mar02,1,36,study,1,male,Latino,female,White,neutral,,,,,m,632.0,True,False,
5,mar02,1,37,study,1,male,White,female,Black,angry,,,,,m,633.0,True,False,
5,mar02,1,38,study,1,male,Latino,female,White,angry,,,,,m,558.0,True,False,
5,mar02,1,39,study,1,male,White,female,White,angry,,,,,m,613.0,True,False,
5,mar02,1,40,study,1,female,White,female,White,happy,,,,,z,614.0,True,False,
5,mar02,1,41,study,1,female,Black,male,White,angry,,,,,z,546.0,True,False,
5,mar02,1,42,study,1,male,Latino,female,White,neutral,,,,,m,696.0,True,False,
5,mar02,1,43,study,1,male,Latino,male,White,neutral,,,,,m,870.0,True,False,
5,mar02,1,44,study,1,male,Black,male,Black,happy,,,,,m,597.0,True,False,
5,mar02,1,45,study,1,female,Black,female,Black,happy,,,,,z,1171.0,True,False,
5,mar02,1,46,study,1,male,White,male,Black,angry,,,,,m,1117.0,True,False,
5,mar02,1,47,study,1,male,Latino,male,White,angry,,,,,m,567.0,True,False,
5,mar02,1,48,study,1,male,White,male,White,angry,,,,,m,611.0,True,False,
5,mar02,1,49,study,1,female,Latino,male,White,angry,,,,,z,732.0,True,False,
5,mar02,1,50,study,1,female,Black,female,White,neutral,,,,,z,690.0,True,False,
5,mar02,1,51,study,1,female,Latino,female,White,angry,,,,,z,755.0,True,False,
5,mar02,1,52,study,1,male,Asian,female,Black,happy,,,,,m,692.0,True,False,
5,mar02,1,53,study,1,female,White,male,White,angry,,,,,z,640.0,True,False,
5,mar02,1,54,study,1,male,White,female,Black,happy,,,,,m,549.0,True,False,
5,mar02,1,55,study,1,female,White,female,White,happy,,,,,z,668.0,True,False,
5,mar02,1,56,study,1,male,Asian,male,White,happy,,,,,m,637.0,True,False,
5,mar02,1,57,study,1,male,Black,female,White,neutral,,,,,m,620.0,True,False,
5,mar02,1,58,study,1,female,Asian,male,White,neutral,,,,,z,716.0,True,False,
5,mar02,1,59,study,1,female,Latino,female,White,angry,,,,,z,665.0,True,False,
5,mar02,1,60,study,1,female,Black,female,Black,neutral,,,,,z,620.0,True,False,
5,mar02,1,61,test,0,female,Latino,,,,old,happy,male,,m,1078.0,False,False,
5,mar02,1,62,test,0,male,White,,,,new,,,,m,737.0,True,False,
5,mar02,1,63,test,0,female,Asian,,,,new,,,,m,896.0,True,False,
5,mar02,1,64,test,0,female,White,,,,old,angry,female,,z,743.0,True,False,
5,mar02,1,65,test,0,male,White,,,,old,angry,male,,z,808.0,True,False,
5,mar02,1,66,test,0,female,Asian,,,,new,,,,m,904.0,True,False,
5,mar02,1,67,test,0,female,Black,,,,old,angry,male,,z,1381.0,True,False,
5,mar02,1,68,test,0,female,Latino,,,,new,,,,m,1178.0,True,False,
5,mar02,1,69,test,0,female,Latino,,,,new,,,,m,2203.0,True,False,
5,mar02,1,70,test,0,female,Latino,,,,new,,,,m,2130.0,True,False,
5,mar02,1,71,test,0,female,White,,,,old,happy,female,,z,1203.0,True,False,
5,mar02,1,72,test,0,female,Asian,,,,new,,,,m,1841.0,True,False,
5,mar02,1,73,test,0,male,White,,,,new,,,,m,2868.0,True,False,
5,mar02,1,74,test,0,female,White,,,,new,,,,m,1263.0,True,False,
5,mar02,1,75,test,0,female,Black,,,,new,,,,m,1564.0,True,False,
5,mar02,1,76,test,0,female,Black,,,,old,neutral,male,,z,1014.0,True,False,
5,mar02,1,77,test,0,male,Asian,,,,old,happy,female,,m,858.0,False,False,
5,mar02,1,78,test,0,male,White,,,,new,,,,m,828.0,True,False,
5,mar02,1,79,test,0,female,Latino,,,,new,,,,m,843.0,True,False,
5,mar02,1,80,test,0,male,White,,,,old,neutral,male,,z,714.0,True,False,
5,mar02,1,81,test,0,male,Black,,,,new,,,,m,1134.0,True,False,
5,mar02,1,82,test,0,male,Latino,,,,new,,,,m,902.0,True,False,
5,mar02,1,83,test,0,male,Asian,,,,old,neutral,female,,m,976.0,False,False,
5,mar02,1,84,test,0,female,Latino,,,,new,,,,m,745.0,True,False,
5,mar02,1,85,test,0,female,White,,,,new,,,,m,788.0,True,False,
5,mar02,1,86,test,0,male,White,,,,old,angry,male,,z,818.0,True,False,
5,mar02,1,87,test,0,male,Black,,,,new,,,,z,755.0,False,False,
5,mar02,1,88,test,0,male,White,,,,old,angry,female,,m,783.0,False,False,
5,mar02,1,89,test,0,female,Black,,,,old,happy,male,,z,885.0,True,False,
5,mar02,1,90,test,0,female,Black,,,,old,neutral,female,,z,667.0,True,False,
5,mar02,1,91,test,0,male,Latino,,,,old,happy,male,,m,866.0,False,False,
5,mar02,1,92,test,0,male,White,,,,new,,,,m,732.0,True,False,
5,mar02,1,93,test,0,male,Asian,,,,new,,,,m,909.0,True,False,
5,mar02,1,94,test,0,female,Black,,,,old,happy,male,,m,824.0,False,False,
5,mar02,1,95,test,0,male,Latino,,,,old,neutral,male,,m,671.0,False,False,
5,mar02,1,96,test,0,male,Latino,,,,old,happy,female,,m,1174.0,False,False,
5,mar02,1,97,test,0,male,Black,,,,new,,,,m,734.0,True,False,
5,mar02,1,98,test,0,female,White,,,,new,,,,z,1062.0,False,False,
5,mar02,1,99,test,0,female,Black,,,,new,,,,m,981.0,True,False,
5,mar02,1,100,test,0,male,Latino,,,,new,,,,m,759.0,True,False,
5,mar02,1,101,test,1,female,Black,,,,new,,,,m,1103.0,True,False,
5,mar02,1,102,test,1,female,Black,,,,new,,,,m,922.0,True,False,
5,mar02,1,103,test,1,male,Black,,,,new,,,,m,1013.0,True,False,
5,mar02,1,104,test,1,female,White,,,,new,,,,m,666.0,True,False,
5,mar02,1,105,test,1,male,Black,,,,new,,,,m,958.0,True,False,
5,mar02,1,106,test,1,female,Black,,,,old,happy,female,,z,1035.0,True,False,
5,mar02,1,107,test,1,male,Latino,,,,old,neutral,male,,z,709.0,True,False,
5,mar02,1,108,test,1,male,Asian,,,,old,angry,female,,m,990.0,False,False,
5,mar02,1,109,test,1,female,White,,,,old,happy,male,,z,876.0,True,False,
5,mar02,1,110,test,1,male,White,,,,new,,,,m,925.0,True,False,
5,mar02,1,111,test,1,male,Latino,,,,new,,,,m,785.0,True,False,
5,mar02,1,112,test,1,male,White,,,,new,,,,m,630.0,True,False,
5,mar02,1,113,test,1,male,Black,,,,new,,,,z,925.0,False,False,
5,mar02,1,114,test,1,female,White,,,,new,,,,m,700.0,True,False,
5,mar02,1,115,test,1,male,Asian,,,,old,happy,male,,m,968.0,False,False,
5,mar02,1,116,test,1,male,White,,,,old,angry,male,,z,870.0,True,False,
5,mar02,1,117,test,1,male,Latino,,,,new,,,,m,675.0,True,False,
5,mar02,1,118,test,1,male,White,,,,old,happy,female,,m,1413.0,False,False,
5,mar02,1,119,test,1,male,Latino,,,,new,,,,m,751.0,True,False,
5,mar02,1,120,test,1,male,Black,,,,new,,,,m,881.0,True,False,
5,mar02,1,121,test,1,male,Black,,,,old,neutral,male,,z,817.0,True,False,
5,mar02,1,122,test,1,female,White,,,,old,happy,female,,m,820.0,False,False,
5,mar02,1,123,test,1,male,Latino,,,,old,happy,male,,m,786.0,False,False,
5,mar02,1,124,test,1,male,Asian,,,,old,happy,male,,m,940.0,False,False,
5,mar02,1,125,test,1,female,White,,,,new,,,,m,926.0,True,False,
5,mar02,1,126,test,1,male,Asian,,,,new,,,,m,703.0,True,False,
5,mar02,1,127,test,1,male,Latino,,,,old,neutral,male,,m,697.0,False,False,
5,mar02,1,128,test,1,male,White,,,,old,neutral,female,,z,822.0,True,False,
5,mar02,1,129,test,1,female,White,,,,new,,,,m,1343.0,True,False,
5,mar02,1,130,test,1,female,White,,,,old,angry,male,,z,812.0,True,False,
5,mar02,1,131,test,1,female,Asian,,,,old,happy,male,,z,1522.0,True,False,
5,mar02,1,132,test,1,male,White,,,,old,angry,female,,m,833.0,False,False,
5,mar02,1,133,test,1,female,White,,,,old,neutral,female,,m,988.0,False,False,
5,mar02,1,134,test,1,female,Latino,,,,old,angry,female,,z,944.0,True,False,
5,mar02,1,135,test,1,female,White,,,,old,neutral,female,,m,756.0,False,False,
5,mar02,1,136,test,1,female,Black,,,,old,neutral,female,,m,831.0,False,False,
5,mar02,1,137,test,1,female,Black,,,,new,,,,m,759.0,True,False,
5,mar02,1,138,test,1,male,Black,,,,old,happy,male,,m,1110.0,False,False,
5,mar02,1,139,test,1,female,Asian,,,,old,neutral,female,,z,1365.0,True,False,
5,mar02,1,140,test,1,male,Asian,,,,new,,,,m,740.0,True,False,
5,mar02,1,141,test,2,female,Latino,,,,new,,,,m,803.0,True,False,
5,mar02,1,142,test,2,female,Asian,,,,old,neutral,male,,m,888.0,False,False,
5,mar02,1,143,test,2,male,Black,,,,old,neutral,female,,m,849.0,False,False,
5,mar02,1,144,test,2,female,Latino,,,,old,angry,female,,m,617.0,False,False,
5,mar02,1,145,test,2,male,Latino,,,,new,,,,m,617.0,True,False,
5,mar02,1,146,test,2,male,White,,,,new,,,,m,666.0,True,False,
5,mar02,1,147,test,2,female,White,,,,new,,,,m,1035.0,True,False,
5,mar02,1,148,test,2,male,White,,,,new,,,,m,599.0,True,False,
5,mar02,1,149,test,2,female,White,,,,new,,,,m,733.0,True,False,
5,mar02,1,150,test,2,male,Asian,,,,old,angry,female,,m,629.0,False,False,
5,mar02,1,151,test,2,male,Latino,,,,old,neutral,female,,m,702.0,False,False,
5,mar02,1,152,test,2,male,Black,,,,old,happy,female,,z,1302.0,True,False,
5,mar02,1,153,test,2,female,Latino,,,,old,angry,female,,m,884.0,False,False,
5,mar02,1,154,test,2,female,Latino,,,,old,neutral,male,,m,923.0,False,False,
5,mar02,1,155,test,2,female,Black,,,,old,happy,female,,m,917.0,False,False,
5,mar02,1,156,test,2,male,Black,,,,new,,,,m,816.0,True,False,
5,mar02,1,157,test,2,female,Latino,,,,old,neutral,male,,z,914.0,True,False,
5,mar02,1,158,test,2,male,Black,,,,new,,,,m,996.0,True,False,
5,mar02,1,159,test,2,female,White,,,,old,happy,female,,z,1423.0,True,False,
5,mar02,1,160,test,2,female,Latino,,,,new,,,,m,932.0,True,False,
5,mar02,1,161,test,2,male,Latino,,,,old,angry,female,,m,793.0,False,False,
5,mar02,1,162,test,2,male,Black,,,,old,happy,female,,z,971.0,True,False,
5,mar02,1,163,test,2,male,Latino,,,,old,angry,male,,m,765.0,False,False,
5,mar02,1,164,test,2,female,Black,,,,old,angry,female,,z,1065.0,True,False,
5,mar02,1,165,test,2,male,Black,,,,new,,,,m,673.0,True,False,
5,mar02,1,166,test,2,male,Black,,,,new,,,,m,696.0,True,False,
5,mar02,1,167,test,2,male,White,,,,old,angry,male,,m,654.0,False,False,
5,mar02,1,168,test,2,female,Asian,,,,new,,,,m,980.0,True,False,
5,mar02,1,169,test,2,male,White,,,,new,,,,m,1518.0,True,False,
5,mar02,1,170,test,2,female,Asian,,,,new,,,,m,748.0,True,False,
5,mar02,1,171,test,2,male,Latino,,,,old,neutral,female,,m,964.0,False,False,
5,mar02,1,172,test,2,female,Latino,,,,old,angry,male,,m,712.0,False,False,
5,mar02,1,173,test,2,male,White,,,,new,,,,m,682.0,True,False,
5,mar02,1,174,test,2,female,Black,,,,new,,,,m,957.0,True,False,
5,mar02,1,175,test,2,female,Asian,,,,old,neutral,male,,m,835.0,False,False,
5,mar02,1,176,test,2,female,Asian,,,,new,,,,m,1010.0,True,False,
5,mar02,1,177,test,2,female,Black,,,,old,angry,male,,m,1191.0,False,False,
5,mar02,1,178,test,2,female,Black,,,,new,,,,m,1222.0,True,False,
5,mar02,1,179,test,2,female,White,,,,old,angry,male,,z,798.0,True,False,
5,mar02,1,180,test,2,female,Latino,,,,new,,,,m,784.0,True,False,
6,mar02,1,1,study,0,female,Black,female,White,happy,,,,,z,892.0,True,False,
6,mar02,1,2,study,0,male,Black,female,White,angry,,,,,m,685.0,True,False,
6,mar02,1,3,study,0,male,Black,male,White,neutral,,,,,m,627.0,True,False,
6,mar02,1,4,study,0,female,Latino,female,Black,happy,,,,,z,681.0,True,False,
6,mar02,1,5,study,0,female,Black,male,Black,angry,,,,,z,610.0,True,False,
6,mar02,1,6,study,0,female,Asian,male,White,happy,,,,,z,514.0,True,False,
6,mar02,1,7,study,0,female,Latino,female,Black,neutral,,,,,z,646.0,True,False,
6,mar02,1,8,study,0,male,Black,female,Black,neutral,,,,,m,619.0,True,False,
6,mar02,1,9,study,0,female,Black,male,Black,angry,,,,,z,854.0,True,False,
6,mar02,1,10,study,0,female,Latino,female,White,neutral,,,,,z,671.0,True,False,
6,mar02,1,11,study,0,male,Black,male,White,happy,,,,,m,678.0,True,False,
6,mar02,1,12,study,0,male,Asian,female,Black,neutral,,,,,m,1131.0,True,False,
6,mar02,1,13,study,0,male,Latino,male,White,neutral,,,,,m,622.0,True,False,
6,mar02,1,14,study,0,male,Asian,male,White,happy,,,,,m,1118.0,True,False,
6,mar02,1,15,study,0,male,White,male,Black,angry,,,,,m,617.0,True,False,
6,mar02,1,16,study,0,female,Asian,male,White,neutral,,,,,z,670.0,True,False,
6,mar02,1,17,study,0,female,White,female,Black,angry,,,,,z,643.0,True,False,
6,mar02,1,18,study,0,female,Black,female,Black,happy,,,,,z,719.0,True,False,
6,mar02,1,19,study,0,female,Latino,female,Black,happy,,,,,z,670.0,True,False,
6,mar02,1,20,study,0,male,Latino,female,White,angry,,,,,m,797.0,True,False,
6,mar02,1,21,study,0,male,White,male,White,neutral,,,,,m,1100.0,True,False,
6,mar02,1,22,study,0,male,White,female,Black,neutral,,,,,m,617.0,True,False,
6,mar02,1,23,study,0,male,White,female,Black,happy,,,,,m,643.0,True,False,
6,mar02,1,24,study,0,female,White,male,White,angry,,,,,z,632.0,True,False,
6,mar02,1,25,study,0,male,Black,female,Black,happy,,,,,m,576.0,True,False,
6,mar02,1,26,study,0,female,Black,male,White,angry,,,,,z,741.0,True,False,
6,mar02,1,27,study,0,female,White,female,White,angry,,,,,z,572.0,True,False,
6,mar02,1,28,study,0,male,White,male,Black,happy,,,,,m,736.0,True,False,
6,mar02,1,29,study,0,male,Latino,male,Black,angry,,,,,m,742.0,True,False,
6,mar02,1,30,study,0,male,Asian,male,Black,angry,,,,,m,627.0,True,False,
6,mar02,1,31,study,1,male,Asian,female,Black,neutral,,,,,m,653.0,True,False,
6,mar02,1,32,study,1,male,Latino,male,White,angry,,,,,m,721.0,True,False,
6,mar02,1,33,study,1,female,Black,female,White,neutral,,,,,z,1368.0,True,False,
6,mar02,1,34,study,1,female,White,female,Black,neutral,,,,,z,614.0,True,False,
6,mar02,1,35,study,1,female,Latino,male,White,neutral,,,,,z,636.0,True,False,
6,mar02,1,36,study,1,female,Asian,male,Black,happy,,,,,z,812.0,True,False,
6,mar02,1,37,study,1,female,Black,male,Black,angry,,,,,z,592.0,True,False,
6,mar02,1,38,study,1,male,Latino,male,Black,happy,,,,,m,1131.0,True,False,
6,mar02,1,39,study,1,female,White,male,Black,happy,,,,,z,1537.0,True,False,
6,mar02,1,40,study,1,male,White,female,Black,angry,,,,,m,1479.0,True,False,
6,mar02,1,41,study,1,male,Black,female,White,happy,,,,,m,986.0,True,False,
6,mar02,1,42,study,1,female,White,male,Black,neutral,,,,,z,691.0,True,False,
6,mar02,1,43,study,1,female,Latino,female,White,happy,,,,,z,832.0,True,False,
6,mar02,1,44,study,1,male,Black,female,White,angry,,,,,m,609.0,True,False,
6,mar02,1,45,study,1,male,White,female,White,angry,,,,,m,824.0,True,False,
6,mar02,1,46,study,1,male,White,female,White,neutral,,,,,m,1032.0,True,False,
6,mar02,1,47,study,1,male,Black,male,White,neutral,,,,,m,1622.0,True,False,
6,mar02,1,48,study,1,female,Asian,female,Black,angry,,,,,z,872.0,True,False,
6,mar02,1,49,study,1,female,Latino,female,Black,angry,,,,,z,1595.0,True,False,
6,mar02,1,50,study,1,male,White,male,Black,angry,,,,,m,757.0,True,False,
6,mar02,1,51,study,1,female,Black,female,White,angry,,,,,z,783.0,True,False,
6,mar02,1,52,study,1,female,Black,male,Black,happy,,,,,z,742.0,True,False,
6,mar02,1,53,study,1,female,Black,male,White,neutral,,,,,z,723.0,True,False,
6,mar02,1,54,study,1,female,White,male,Black,happy,,,,,z,1581.0,True,False,
6,mar02,1,55,study,1,male,White,male,White,happy,,,,,m,668.0,True,False,
6,mar02,1,56,study,1,male,Black,female,White,happy,,,,,m,767.0,True,False,
6,mar02,1,57,study,1,male,Black,female,White,happy,,,,,m,585.0,True,False,
6,mar02,1,58,study,1,male,Black,male,White,neutral,,,,,m,747.0,True,False,
6,mar02,1,59,study,1,female,White,female,White,neutral,,,,,z,602.0,True,False,
6,mar02,1,60,study,1,female,Black,male,White,neutral,,,,,z,742.0,True,False,
6,mar02,1,61,test,0,male,Black,,,,new,,,,m,2781.0,True,False,
6,mar02,1,62,test,0,female,Latino,,,,new,,,,z,2428.0,False,False,
6,mar02,1,63,test,0,female,White,,,,old,angry,female,,m,1312.0,False,False,
6,mar02,1,64,test,0,female,White,,,,old,neutral,male,,z,1071.0,True,False,
6,mar02,1,65,test,0,male,Asian,,,,new,,,,z,796.0,False,False,
6,mar02,1,66,test,0,female,Black,,,,new,,,,m,886.0,True,False,
6,mar02,1,67,test,0,female,Asian,,,,new,,,,m,591.0,True,False,
6,mar02,1,68,test,0,female,Latino,,,,new,,,,m,774.0,True,False,
6,mar02,1,69,test,0,female,White,,,,new,,,,m,703.0,True,False,
6,mar02,1,70,test,0,male,Black,,,,new,,,,m,671.0,True,False,
6,mar02,1,71,test,0,female,White,,,,new,,,,m,813.0,True,False,
6,mar02,1,72,test,0,female,Latino,,,,old,neutral,female,,m,672.0,False,False,
6,mar02,1,73,test,0,female,Black,,,,old,happy,female,,z,974.0,True,False,
6,mar02,1,74,test,0,female,Latino,,,,old,neutral,male,,m,725.0,False,False,
6,mar02,1,75,test,0,female,Black,,,,old,angry,male,,z,738.0,True,False,
6,mar02,1,76,test,0,male,White,,,,old,happy,female,,z,1166.0,True,False,
6,mar02,1,77,test,0,male,White,,,,old,angry,female,,z,888.0,True,False,
6,mar02,1,78,test,0,female,Asian,,,,old,happy,male,,m,805.0,False,False,
6,mar02,1,79,test,0,female,Asian,,,,new,,,,z,1174.0,False,False,
6,mar02,1,80,test,0,male,White,,,,old,neutral,female,,z,755.0,True,False,
6,mar02,1,81,test,0,female,Latino,,,,new,,,,z,953.0,False,False,
6,mar02,1,82,test,0,male,White,,,,new,,,,m,664.0,True,False,
6,mar02,1,83,test,0,male,White,,,,new,,,,m,839.0,True,False,
6,mar02,1,84,test,0,male,Black,,,,old,neutral,male,,m,748.0,False,False,
6,mar02,1,85,test,0,female,Black,,,,old,angry,male,,m,980.0,False,False,
6,mar02,1,86,test,0,female,White,,,,new,,,,m,1129.0,True,False,
6,mar02,1,87,test,0,male,Asian,,,,new,,,,z,877.0,False,False,
6,mar02,1,88,test,0,female,Latino,,,,old,neutral,female,,m,2032.0,False,False,
6,mar02,1,89,test,0,male,Black,,,,old,neutral,male,,z,2594.0,True,False,
6,mar02,1,90,test,0,male,Black,,,,new,,,,m,2127.0,True,False,
6,mar02,1,91,test,0,male,Black,,,,new,,,,m,1007.0,True,False,
6,mar02,1,92,test,0,male,Black,,,,old,angry,female,,z,1022.0,True,False,
6,mar02,1,93,test,0,male,Black,,,,old,neutral,male,,m,728.0,False,False,
6,mar02,1,94,test,0,male,White,,,,new,,,,m,1381.0,True,False,
6,mar02,1,95,test,0,male,Latino,,,,new,,,,m,1508.0,True,False,
6,mar02,1,96,test,0,female,Black,,,,old,happy,male,,m,1272.0,False,False,
6,mar02,1,97,test,0,female,Asian,,,,new,,,,m,1440.0,True,False,
6,mar02,1,98,test,0,female,White,,,,new,,,,m,1237.0,True,False,
6,mar02,1,99,test,0,male,White,,,,old,neutral,female,,z,1327.0,True,False,
6,mar02,1,100,test,0,male,Latino,,,,old,happy,male,,m,1293.0,False,False,
6,mar02,1,101,test,1,female,Black,,,,old,neutral,female,,m,1088.0,False,False,
6,mar02,1,102,test,1,male,Black,,,,old,angry,female,,m,732.0,False,False,
6,mar02,1,103,test,1,female,White,,,,old,happy,male,,m,975.0,False,False,
6,mar02,1,104,test,1,female,White,,,,new,,,,z,1175.0,False,False,
6,mar02,1,105,test,1,female,White,,,,new,,,,m,938.0,True,False,
6,mar02,1,106,test,1,male,White,,,,old,angry,male,,z,1128.0,True,False,
6,mar02,1,107,test,1,female,Latino,,,,old,happy,female,,z,909.0,True,False,
6,mar02,1,108,test,1,female,Latino,,,,new,,,,z,1566.0,False,False,
6,mar02,1,109,test,1,male,White,,,,old,angry,male,,m,1738.0,False,False,
6,mar02,1,110,test,1,female,Asian,,,,new,,,,m,1476.0,True,False,
6,mar02,1,111,test,1,male,Latino,,,,new,,,,m,2091.0,True,False,
6,mar02,1,112,test,1,female,Black,,,,old,angry,male,,z,2066.0,True,False,
6,mar02,1,113,test,1,male,Asian,,,,new,,,,m,1477.0,True,False,
6,mar02,1,114,test,1,male,Asian,,,,new,,,,z,1716.0,False,False,
6,mar02,1,115,test,1,male,Black,,,,old,happy,female,,z,1576.0,True,False,
6,mar02,1,116,test,1,female,Black,,,,new,,,,m,2651.0,True,False,
6,mar02,1,117,test,1,female,White,,,,new,,,,m,2521.0,True,False,
6,mar02,1,118,test,1,male,Latino,,,,new,,,,m,1442.0,True,False,
6,mar02,1,119,test,1,female,Latino,,,,new,,,,z,1836.0,False,False,
6,mar02,1,120,test,1,female,White,,,,old,angry,female,,m,1569.0,False,False,
6,mar02,1,121,test,1,male,White,,,,new,,,,m,2804.0,True,False,
6,mar02,1,122,test,1,male,Black,,,,old,neutral,female,,m,1699.0,False,False,
6,mar02,1,123,test,1,male,Black,,,,new,,,,m,1202.0,True,False,
6,mar02,1,124,test,1,male,Latino,,,,old,angry,female,,m,1804.0,False,False,
6,mar02,1,125,test,1,male,White,,,,old,angry,female,,z,1325.0,True,False,
6,mar02,1,126,test,1,male,White,,,,new,,,,m,1374.0,True,False,
6,mar02,1,127,test,1,male,White,,,,new,,,,m,1472.0,True,False,
6,mar02,1,128,test,1,male,White,,,,old,happy,male,,m,1373.0,False,False,
6,mar02,1,129,test,1,female,Asian,,,,old,neutral,male,,z,952.0,True,False,
6,mar02,1,130,test,1,female,White,,,,old,angry,male,,z,1476.0,True,False,
6,mar02,1,131,test,1,male,White,,,,new,,,,m,1073.0,True,False,
6,mar02,1,132,test,1,female,Black,,,,old,happy,female,,z,1110.0,True,False,
6,mar02,1,133,test,1,female,Black,,,,old,angry,male,,m,798.0,False,False,
6,mar02,1,134,test,1,female,Black,,,,old,neutral,male,,z,1266.0,True,False,
6,mar02,1,135,test,1,male,White,,,,old,happy,male,,m,1028.0,False,False,
6,mar02,1,136,test,1,male,Asian,,,,old,happy,male,,m,824.0,False,False,
6,mar02,1,137,test,1,male,Asian,,,,old,angry,male,,z,1512.0,True,False,
6,mar02,1,138,test,1,female,Black,,,,old,neutral,male,,m,1018.0,False,False,
6,mar02,1,139,test,1,female,Black,,,,new,,,,m,800.0,True,False,
6,mar02,1,140,test,1,female,Asian,,,,old,angry,female,,m,733.0,False,False,
6,mar02,1,141,test,2,male,White,,,,new,,,,z,830.0,False,False,
6,mar02,1,142,test,2,female,Latino,,,,old,happy,female,,m,680.0,False,False,
6,mar02,1,143,test,2,female,White,,,,new,,,,m,573.0,True,False,
6,mar02,1,144,test,2,male,Black,,,,old,happy,female,,m,1112.0,False,False,
6,mar02,1,145,test,2,female,White,,,,old,neutral,female,,m,646.0,False,False,
6,mar02,1,146,test,2,male,Asian,,,,old,neutral,female,,m,746.0,False,False,
6,mar02,1,147,test,2,male,White,,,,new,,,,m,805.0,True,False,
6,mar02,1,148,test,2,female,Asian,,,,old,happy,male,,m,749.0,False,False,
6,mar02,1,149,test,2,male,Latino,,,,old,angry,male,,z,1336.0,True,False,
6,mar02,1,150,test,2,female,Asian,,,,new,,,,m,676.0,True,False,
6,mar02,1,151,test,2,male,Latino,,,,new,,,,z,1545.0,False,False,
6,mar02,1,152,test,2,female,White,,,,new,,,,m,725.0,True,False,
6,mar02,1,153,test,2,female,Asian,,,,new,,,,m,779.0,True,False,
6,mar02,1,154,test,2,female,Latino,,,,new,,,,m,824.0,True,False,
6,mar02,1,155,test,2,male,Asian,,,,old,neutral,female,,m,1319.0,False,False,
6,mar02,1,156,test,2,female,Black,,,,new,,,,m,1026.0,True,False,
6,mar02,1,157,test,2,male,White,,,,old,neutral,male,,z,1051.0,True,False,
6,mar02,1,158,test,2,female,White,,,,new,,,,m,982.0,True,False,
6,mar02,1,159,test,2,male,Black,,,,old,happy,male,,m,858.0,False,False,
6,mar02,1,160,test,2,male,Black,,,,old,happy,female,,z,1083.0,True,False,
6,mar02,1,161,test,2,male,White,,,,new,,,,m,1515.0,True,False,
6,mar02,1,162,test,2,female,White,,,,old,happy,male,,m,741.0,False,False,
6,mar02,1,163,test,2,male,Latino,,,,new,,,,z,2226.0,False,False,
6,mar02,1,164,test,2,male,Latino,,,,old,angry,male,,z,1231.0,True,False,
6,mar02,1,165,test,2,male,White,,,,new,,,,m,757.0,True,False,
6,mar02,1,166,test,2,male,Latino,,,,new,,,,m,710.0,True,False,
6,mar02,1,167,test,2,male,Black,,,,old,happy,female,,m,1147.0,False,False,
6,mar02,1,168,test,2,male,White,,,,new,,,,m,700.0,True,False,
6,mar02,1,169,test,2,female,White,,,,new,,,,m,721.0,True,False,
6,mar02,1,170,test,2,female,White,,,,new,,,,m,1210.0,True,False,
6,mar02,1,171,test,2,male,Black,,,,new,,,,z,1115.0,False,False,
6,mar02,1,172,test,2,female,Black,,,,old,angry,female,,z,936.0,True,False,
6,mar02,1,173,test,2,female,White,,,,old,neutral,female,,m,755.0,False,False,
6,mar02,1,174,test,2,male,Latino,,,,old,neutral,male,,m,784.0,False,False,
6,mar02,1,175,test,2,female,Black,,,,new,,,,z,1247.0,False,False,
6,mar02,1,176,test,2,male,White,,,,new,,,,m,780.0,True,False,
6,mar02,1,177,test,2,female,Latino,,,,new,,,,m,781.0,True,False,
6,mar02,1,178,test,2,female,Latino,,,,old,angry,female,,z,1636.0,True,False,
6,mar02,1,179,test,2,male,Latino,,,,new,,,,m,648.0,True,False,
6,mar02,1,180,test,2,female,Latino,,,,old,happy,female,,m,724.0,False,False,
7,mar02,1,1,study,0,male,Asian,male,Black,neutral,,,,,z,809.0,False,False,
7,mar02,1,2,study,0,female,Black,male,White,happy,,,,,m,713.0,False,False,
7,mar02,1,3,study,0,female,White,male,White,angry,,,,,m,2434.0,False,False,
7,mar02,1,4,study,0,male,Black,male,White,neutral,,,,,z,597.0,False,False,
7,mar02,1,5,study,0,male,White,male,White,neutral,,,,,z,1228.0,False,False,
7,mar02,1,6,study,0,female,White,female,Black,angry,,,,,m,707.0,False,False,
7,mar02,1,7,study,0,male,Black,female,Black,happy,,,,,z,984.0,False,False,
7,mar02,1,8,study,0,male,Black,female,White,neutral,,,,,z,663.0,False,False,
7,mar02,1,9,study,0,female,Asian,male,Black,neutral,,,,,m,2257.0,False,False,
7,mar02,1,10,study,0,female,White,male,Black,angry,,,,,m,905.0,False,False,
7,mar02,1,11,study,0,female,White,male,White,happy,,,,,,,False,True,
7,mar02,1,12,study,0,female,Asian,female,Black,happy,,,,,m,1082.0,False,False,
7,mar02,1,13,study,0,male,Latino,male,White,neutral,,,,,z,817.0,False,False,
7,mar02,1,14,study,0,male,Black,male,Black,angry,,,,,z,1010.0,False,False,
7,mar02,1,15,study,0,female,White,male,White,neutral,,,,,m,868.0,False,False,
7,mar02,1,16,study,0,female,White,female,Black,neutral,,,,,m,967.0,False,False,
7,mar02,1,17,study,0,female,Latino,female,White,angry,,,,,m,1011.0,False,False,
7,mar02,1,18,study,0,female,Asian,female,White,neutral,,,,,m,775.0,False,False,
7,mar02,1,19,study,0,male,White,female,White,neutral,,,,,z,1119.0,False,False,
7,mar02,1,20,study,0,female,Asian,male,White,neutral,,,,,m,845.0,False,False,
7,mar02,1,21,study,0,male,White,female,Black,angry,,,,,z,1540.0,False,False,
7,mar02,1,22,study,0,male,Black,male,Black,happy,,,,,z,1746.0,False,False,
7,mar02,1,23,study,0,female,Latino,male,Black,angry,,,,,m,970.0,False,False,
7,mar02,1,24,study,0,male,White,male,Black,angry,,,,,z,898.0,False,False,
7,mar02,1,25,study,0,female,Black,female,Black,happy,,,,,z,889.0,True,False,
7,mar02,1,26,study,0,female,Black,female,White,neutral,,,,,m,779.0,False,False,
7,mar02,1,27,study,0,female,Black,female,White,neutral,,,,,m,813.0,False,False,
7,mar02,1,28,study,0,female,Black,male,Black,happy,,,,,m,853.0,False,False,
7,mar02,1,29,study,0,male,Asian,male,Black,neutral,,,,,z,1631.0,False,False,
7,mar02,1,30,study,0,female,Asian,male,Black,angry,,,,,m,630.0,False,False,
7,mar02,1,31,study,1,male,White,male,Black,angry,,,,,z,826.0,False,False,
7,mar02,1,32,study,1,female,Latino,female,Black,angry,,,,,m,675.0,False,False,
7,mar02,1,33,study,1,male,Black,male,Black,happy,,,,,z,1008.0,False,False,
7,mar02,1,34,study,1,female,Asian,male,White,neutral,,,,,m,1455.0,False,False,
7,mar02,1,35,study,1,male,Black,female,White,happy,,,,,z,677.0,False,False,
7,mar02,1,36,study,1,female,Latino,female,Black,angry,,,,,m,1431.0,False,False,
7,mar02,1,37,study,1,female,White,female,White,happy,,,,,m,1998.0,False,False,
7,mar02,1,38,study,1,male,Black,female,White,happy,,,,,z,924.0,False,False,
7,mar02,1,39,study,1,male,White,female,White,neutral,,,,,z,833.0,False,False,
7,mar02,1,40,study,1,female,Latino,male,White,happy,,,,,m,1333.0,False,False,
7,mar02,1,41,study,1,female,Latino,male,White,neutral,,,,,m,1474.0,False,False,
7,mar02,1,42,study,1,male,Asian,male,Black,angry,,,,,z,1864.0,False,False,
7,mar02,1,43,study,1,male,Latino,female,White,happy,,,,,z,2269.0,False,False,
7,mar02,1,44,study,1,male,Black,female,Black,angry,,,,,z,1701.0,False,False,
7,mar02,1,45,study,1,female,White,female,White,angry,,,,,m,2044.0,False,False,
7,mar02,1,46,study,1,male,Asian,male,Black,happy,,,,,z,1697.0,False,False,
7,mar02,1,47,study,1,male,Latino,female,Black,angry,,,,,z,1726.0,False,False,
7,mar02,1,48,study,1,male,Latino,female,White,neutral,,,,,z,1547.0,False,False,
7,mar02,1,49,study,1,male,Latino,female,White,neutral,,,,,m,2918.0,True,False,
7,mar02,1,50,study,1,male,White,female,Black,angry,,,,,z,949.0,False,False,
7,mar02,1,51,study,1,female,White,female,White,happy,,,,,m,1515.0,False,False,
7,mar02,1,52,study,1,male,Black,male,Black,happy,,,,,z,1667.0,False,False,
7,mar02,1,53,study,1,male,Latino,female,White,angry,,,,,z,1577.0,False,False,
7,mar02,1,54,study,1,male,Black,female,Black,happy,,,,,z,930.0,False,False,
7,mar02,1,55,study,1,female,White,male,White,happy,,,,,m,1567.0,False,False,
7,mar02,1,56,study,1,female,White,female,Black,neutral,,,,,m,1500.0,False,False,
7,mar02,1,57,study,1,male,Latino,male,White,happy,,,,,m,2715.0,True,False,
7,mar02,1,58,study,1,female,Asian,male,White,angry,,,,,m,1323.0,False,False,
7,mar02,1,59,study,1,female,White,female,White,happy,,,,,m,1187.0,False,False,
7,mar02,1,60,study,1,male,White,male,Black,angry,,,,,z,1181.0,False,False,
7,mar02,1,61,test,0,male,White,,,,new,,,,m,1398.0,False,False,
7,mar02,1,62,test,0,female,Asian,,,,old,neutral,male,,m,1487.0,True,False,
7,mar02,1,63,test,0,male,Asian,,,,old,neutral,male,,m,1306.0,True,False,
7,mar02,1,64,test,0,male,White,,,,new,,,,z,1113.0,True,False,
7,mar02,1,65,test,0,female,Black,,,,new,,,,m,1021.0,False,False,
7,mar02,1,66,test,0,female,Asian,,,,new,,,,m,1181.0,False,False,
7,mar02,1,67,test,0,male,Asian,,,,new,,,,z,1306.0,True,False,
7,mar02,1,68,test,0,female,White,,,,new,,,,z,2429.0,True,False,
7,mar02,1,69,test,0,male,Black,,,,old,angry,female,,z,1802.0,False,False,
7,mar02,1,70,test,0,female,Latino,,,,new,,,,z,1063.0,True,False,
7,mar02,1,71,test,0,female,Black,,,,new,,,,z,850.0,True,False,
7,mar02,1,72,test,0,female,Black,,,,old,happy,male,,z,767.0,False,False,
7,mar02,1,73,test,0,male,Black,,,,new,,,,m,978.0,False,False,
7,mar02,1,74,test,0,male,White,,,,old,neutral,female,,m,927.0,True,False,
7,mar02,1,75,test,0,female,White,,,,new,,,,m,1057.0,False,False,
7,mar02,1,76,test,0,male,Black,,,,old,happy,female,,z,837.0,False,False,
7,mar02,1,77,test,0,female,Black,,,,new,,,,z,801.0,True,False,
7,mar02,1,78,test,0,female,Asian,,,,old,angry,male,,z,718.0,False,False,
7,mar02,1,79,test,0,male,Black,,,,new,,,,m,1367.0,False,False,
7,mar02,1,80,test,0,female,Asian,,,,old,neutral,male,,z,1789.0,False,False,
7,mar02,1,81,test,0,female,White,,,,old,neutral,female,,z,1175.0,False,False,
7,mar02,1,82,test,0,female,Latino,,,,new,,,,z,1525.0,True,False,
7,mar02,1,83,test,0,female,Black,,,,old,happy,male,,z,1074.0,False,False,
7,mar02,1,84,test,0,female,Black,,,,new,,,,m,2516.0,False,False,
7,mar02,1,85,test,0,female,White,,,,new,,,,m,1079.0,False,False,
7,mar02,1,86,test,0,female,White,,,,old,neutral,female,,z,1013.0,False,False,
7,mar02,1,87,test,0,male,White,,,,old,angry,male,,z,869.0,False,False,
7,mar02,1,88,test,0,female,Asian,,,,new,,,,m,1452.0,False,False,
7,mar02,1,89,test,0,male,Black,,,,old,happy,male,,z,719.0,False,False,
7,mar02,1,90,test,0,male,Black,,,,new,,,,m,1240.0,False,False,
7,mar02,1,91,test,0,male,White,,,,new,,,,m,1615.0,False,False,
7,mar02,1,92,test,0,male,White,,,,new,,,,m,1367.0,False,False,
7,mar02,1,93,test,0,male,Latino,,,,new,,,,z,1202.0,True,False,
7,mar02,1,94,test,0,male,White,,,,old,neutral,male,,z,967.0,False,False,
7,mar02,1,95,test,0,female,Latino,,,,old,angry,female,,z,1704.0,False,False,
7,mar02,1,96,test,0,female,Asian,,,,new,,,,z,937.0,True,False,
7,mar02,1,97,test,0,female,Asian,,,,new,,,,z,988.0,True,False,
7,mar02,1,98,test,0,female,Asian,,,,old,neutral,female,,z,889.0,False,False,
7,mar02,1,99,test,0,female,Latino,,,,old,neutral,male,,z,915.0,False,False,
7,mar02,1,100,test,0,male,White,,,,new,,,,z,930.0,True,False,
7,mar02,1,101,test,1,female,Latino,,,,new,,,,z,1311.0,True,False,
7,mar02,1,102,test,1,male,Asian,,,,new,,,,,,False,True,
7,mar02,1,103,test,1,male,Black,,,,new,,,,m,2036.0,False,False,
7,mar02,1,104,test,1,male,Asian,,,,new,,,,z,2084.0,True,False,
7,mar02,1,105,test,1,female,Asian,,,,new,,,,z,1103.0,True,False,
7,mar02,1,106,test,1,female,Black,,,,new,,,,z,1565.0,True,False,
7,mar02,1,107,test,1,male,Asian,,,,old,neutral,male,,z,1809.0,False,False,
7,mar02,1,108,test,1,male,Black,,,,new,,,,m,2513.0,False,False,
7,mar02,1,109,test,1,male,Black,,,,old,happy,male,,m,2044.0,True,False,
7,mar02,1,110,test,1,male,Asian,,,,old,happy,male,,m,1055.0,True,False,
7,mar02,1,111,test,1,female,Asian,,,,old,neutral,male,,m,1872.0,True,False,
7,mar02,1,112,test,1,female,Black,,,,new,,,,m,1955.0,False,False,
7,mar02,1,113,test,1,male,Black,,,,old,neutral,male,,z,816.0,False,False,
7,mar02,1,114,test,1,female,White,,,,new,,,,m,1194.0,False,False,
7,mar02,1,115,test,1,male,Asian,,,,old,angry,male,,z,1097.0,False,False,
7,mar02,1,116,test,1,male,Black,,,,old,neutral,female,,z,1536.0,False,False,
7,mar02,1,117,test,1,male,Black,,,,old,happy,male,,m,1415.0,True,False,
7,mar02,1,118,test,1,male,Asian,,,,new,,,,m,815.0,False,False,
7,mar02,1,119,test,1,female,White,,,,old,happy,female,,m,709.0,True,False,
7,mar02,1,120,test,1,male,Black,,,,old,angry,male,,m,828.0,True,False,
7,mar02,1,121,test,1,female,Black,,,,old,neutral,female,,m,1641.0,True,False,
7,mar02,1,122,test,1,male,White,,,,new,,,,m,847.0,False,False,
7,mar02,1,123,test,1,male,White,,,,old,angry,male,,m,959.0,True,False,
7,mar02,1,124,test,1,female,White,,,,old,angry,male,,m,838.0,True,False,
7,mar02,1,125,test,1,female,White,,,,new,,,,m,772.0,False,False,
7,mar02,1,126,test,1,male,Black,,,,new,,,,m,756.0,False,False,
7,mar02,1,127,test,1,male,Black,,,,new,,,,m,962.0,False,False,
7,mar02,1,128,test,1,female,Latino,,,,new,,,,m,997.0,False,False,
7,mar02,1,129,test,1,female,Black,,,,new,,,,m,1198.0,False,False,
7,mar02,1,130,test,1,male,Latino,,,,new,,,,z,854.0,True,False,
7,mar02,1,131,test,1,female,White,,,,old,angry,female,,m,1398.0,True,False,
7,mar02,1,132,test,1,male,Black,,,,new,,,,m,2013.0,False,False,
7,mar02,1,133,test,1,female,Black,,,,old,neutral,female,,m,2154.0,True,False,
7,mar02,1,134,test,1,female,Asian,,,,old,happy,female,,m,716.0,True,False,
7,mar02,1,135,test,1,female,Latino,,,,old,happy,male,,m,980.0,True,False,
7,mar02,1,136,test,1,male,White,,,,old,angry,male,,m,840.0,True,False,
7,mar02,1,137,test,1,male,White,,,,old,angry,female,,m,940.0,True,False,
7,mar02,1,138,test,1,male,White,,,,old,neutral,female,,m,1024.0,True,False,
7,mar02,1,139,test,1,female,White,,,,old,happy,male,,m,859.0,True,False,
7,mar02,1,140,test,1,male,Latino,,,,old,happy,male,,m,598.0,True,False,
7,mar02,1,141,test,2,male,Latino,,,,old,angry,female,,m,1129.0,True,False,
7,mar02,1,142,test,2,male,Latino,,,,old,neutral,female,,z,1198.0,False,False,
7,mar02,1,143,test,2,female,Black,,,,old,happy,female,,m,943.0,True,False,
7,mar02,1,144,test,2,male,Latino,,,,old,angry,female,,m,711.0,True,False,
7,mar02,1,145,test,2,female,Latino,,,,old,angry,female,,m,743.0,True,False,
7,mar02,1,146,test,2,male,Latino,,,,new,,,,z,805.0,True,False,
7,mar02,1,147,test,2,male,White,,,,new,,,,m,934.0,False,False,
7,mar02,1,148,test,2,male,Black,,,,new,,,,m,931.0,False,False,
7,mar02,1,149,test,2,female,White,,,,new,,,,m,748.0,False,False,
7,mar02,1,150,test,2,male,Black,,,,new,,,,z,2253.0,True,False,
7,mar02,1,151,test,2,female,White,,,,new,,,,m,1525.0,False,False,
7,mar02,1,152,test,2,male,Black,,,,old,happy,female,,z,1460.0,False,False,
7,mar02,1,153,test,2,male,Black,,,,old,happy,female,,z,773.0,False,False,
7,mar02,1,154,test,2,female,Latino,,,,old,angry,male,,m,1346.0,True,False,
7,mar02,1,155,test,2,female,White,,,,old,angry,male,,m,783.0,True,False,
7,mar02,1,156,test,2,male,Latino,,,,new,,,,z,833.0,True,False,
7,mar02,1,157,test,2,female,Latino,,,,new,,,,m,878.0,False,False,
7,mar02,1,158,test,2,male,Black,,,,old,happy,female,,z,870.0,False,False,
7,mar02,1,159,test,2,male,Latino,,,,new,,,,m,1224.0,False,False,
7,mar02,1,160,test,2,male,Asian,,,,new,,,,z,1871.0,True,False,
7,mar02,1,161,test,2,male,Latino,,,,old,neutral,female,,z,854.0,False,False,
7,mar02,1,162,test,2,female,Latino,,,,new,,,,m,1107.0,False,False,
7,mar02,1,163,test,2,male,Asian,,,,new,,,,m,800.0,False,False,
7,mar02,1,164,test,2,male,White,,,,new,,,,m,768.0,False,False,
7,mar02,1,165,test,2,male,White,,,,old,angry,female,,m,941.0,True,False,
7,mar02,1,166,test,2,female,Asian,,,,old,angry,male,,m,792.0,True,False,
7,mar02,1,167,test,2,female,White,,,,old,happy,female,,m,836.0,True,False,
7,mar02,1,168,test,2,female,White,,,,old,happy,male,,m,981.0,True,False,
7,mar02,1,169,test,2,male,Latino,,,,old,happy,female,,m,710.0,True,False,
7,mar02,1,170,test,2,female,Black,,,,new,,,,m,383.0,False,False,
7,mar02,1,171,test,2,female,White,,,,old,angry,female,,m,933.0,True,False,
7,mar02,1,172,test,2,female,Black,,,,new,,,,m,1034.0,False,False,
7,mar02,1,173,test,2,female,White,,,,old,neutral,male,,m,847.0,True,False,
7,mar02,1,174,test,2,female,White,,,,new,,,,m,952.0,False,False,
7,mar02,1,175,test,2,female,White,,,,old,happy,female,,m,943.0,True,False,
7,mar02,1,176,test,2,male,Latino,,,,old,neutral,male,,m,1174.0,True,False,
7,mar02,1,177,test,2,male,White,,,,new,,,,m,913.0,False,False,
7,mar02,1,178,test,2,female,Latino,,,,old,angry,female,,m,1125.0,True,False,
7,mar02,1,179,test,2,female,Asian,,,,new,,,,m,793.0,False,False,
7,mar02,1,180,test,2,female,White,,,,new,,,,m,803.0,False,False,
8,mar02,1,1,study,0,female,Black,male,Black,neutral,,,,,z,700.0,True,False,
8,mar02,1,2,study,0,male,Black,male,White,happy,,,,,m,698.0,True,False,
8,mar02,1,3,study,0,female,Black,male,White,happy,,,,,m,1114.0,False,False,
8,mar02,1,4,study,0,male,Latino,male,White,neutral,,,,,m,1098.0,True,False,
8,mar02,1,5,study,0,male,Latino,male,White,happy,,,,,m,714.0,True,False,
8,mar02,1,6,study,0,female,Black,male,Black,happy,,,,,z,1040.0,True,False,
8,mar02,1,7,study,0,male,White,male,Black,happy,,,,,m,846.0,True,False,
8,mar02,1,8,study,0,male,Black,female,Black,happy,,,,,z,866.0,False,False,
8,mar02,1,9,study,0,male,White,male,Black,neutral,,,,,m,821.0,True,False,
8,mar02,1,10,study,0,female,White,male,Black,angry,,,,,z,833.0,True,False,
8,mar02,1,11,study,0,male,Latino,male,White,neutral,,,,,m,745.0,True,False,
8,mar02,1,12,study,0,male,Latino,female,Black,neutral,,,,,m,1378.0,True,False,
8,mar02,1,13,study,0,male,White,female,Black,angry,,,,,m,707.0,True,False,
8,mar02,1,14,study,0,male,Black,male,Black,happy,,,,,m,794.0,True,False,
8,mar02,1,15,study,0,female,White,male,White,neutral,,,,,z,1133.0,True,False,
8,mar02,1,16,study,0,male,White,male,Black,neutral,,,,,m,629.0,True,False,
8,mar02,1,17,study,0,female,Black,male,Black,angry,,,,,m,1233.0,False,False,
8,mar02,1,18,study,0,male,Latino,female,Black,happy,,,,,z,768.0,False,False,
8,mar02,1,19,study,0,male,Latino,female,White,neutral,,,,,z,868.0,False,False,
8,mar02,1,20,study,0,female,Black,female,Black,happy,,,,,z,765.0,True,False,
8,mar02,1,21,study,0,male,Latino,female,White,happy,,,,,z,848.0,False,False,
8,mar02,1,22,study,0,female,Black,female,White,angry,,,,,z,910.0,True,False,
8,mar02,1,23,study,0,female,Black,female,White,angry,,,,,z,681.0,True,False,
8,mar02,1,24,study,0,male,Latino,female,Black,neutral,,,,,z,844.0,False,False,
8,mar02,1,25,study,0,female,Asian,female,White,neutral,,,,,z,762.0,True,False,
8,mar02,1,26,study,0,female,Black,female,White,neutral,,,,,z,709.0,True,False,
8,mar02,1,27,study,0,male,Black,female,White,happy,,,,,z,697.0,False,False,
8,mar02,1,28,study,0,female,Latino,female,Black,happy,,,,,z,652.0,True,False,
8,mar02,1,29,study,0,female,White,female,White,happy,,,,,z,624.0,True,False,
8,mar02,1,30,study,0,female,Latino,male,Black,happy,,,,,m,918.0,False,False,
8,mar02,1,31,study,1,female,Asian,male,Black,neutral,,,,,z,1025.0,True,False,
8,mar02,1,32,study,1,female,Latino,female,Black,neutral,,,,,z,599.0,True,False,
8,mar02,1,33,study,1,female,Asian,female,White,neutral,,,,,z,606.0,True,False,
8,mar02,1,34,study,1,male,Asian,male,White,angry,,,,,m,749.0,True,False,
8,mar02,1,35,study,1,female,White,male,Black,angry,,,,,m,840.0,False,False,
8,mar02,1,36,study,1,female,White,female,Black,angry,,,,,z,799.0,True,False,
8,mar02,1,37,study,1,male,Asian,female,Black,neutral,,,,,z,721.0,False,False,
8,mar02,1,38,study,1,female,Latino,male,Black,angry,,,,,m,976.0,False,False,
8,mar02,1,39,study,1,male,Black,female,White,neutral,,,,,z,836.0,False,False,
8,mar02,1,40,study,1,male,White,male,Black,angry,,,,,m,782.0,True,False,
8,mar02,1,41,study,1,male,Black,female,Black,angry,,,,,z,783.0,False,False,
8,mar02,1,42,study,1,male,Asian,female,Black,happy,,,,,z,578.0,False,False,
8,mar02,1,43,study,1,female,Black,male,White,neutral,,,,,m,903.0,False,False,
8,mar02,1,44,study,1,male,Black,male,White,happy,,,,,m,713.0,True,False,
8,mar02,1,45,study,1,female,Black,male,White,neutral,,,,,m,1019.0,False,False,
8,mar02,1,46,study,1,female,Asian,female,Black,neutral,,,,,z,600.0,True,False,
8,mar02,1,47,study,1,male,Latino,male,White,angry,,,,,m,904.0,True,False,
8,mar02,1,48,study,1,male,Asian,male,White,angry,,,,,m,919.0,True,False,
8,mar02,1,49,study,1,male,White,male,Black,neutral,,,,,m,912.0,True,False,
8,mar02,1,50,study,1,male,White,male,White,angry,,,,,m,772.0,True,False,
8,mar02,1,51,study,1,female,White,male,Black,happy,,,,,m,1136.0,False,False,
8,mar02,1,52,study,1,male,Black,female,White,angry,,,,,z,584.0,False,False,
8,mar02,1,53,study,1,female,Asian,male,White,happy,,,,,m,716.0,False,False,
8,mar02,1,54,study,1,male,Black,female,White,angry,,,,,m,813.0,True,False,
8,mar02,1,55,study,1,female,Asian,male,Black,angry,,,,,m,814.0,False,False,
8,mar02,1,56,study,1,female,Latino,female,Black,happy,,,,,z,598.0,True,False,
8,mar02,1,57,study,1,female,Latino,female,Black,angry,,,,,z,768.0,True,False,
8,mar02,1,58,study,1,female,Asian,female,Black,happy,,,,,z,750.0,True,False,
8,mar02,1,59,study,1,male,Black,female,White,angry,,,,,z,796.0,False,False,
8,mar02,1,60,study,1,female,Black,female,Black,angry,,,,,z,609.0,True,False,
8,mar02,1,61,test,0,female,White,,,,new,,,,z,1069.0,True,False,
8,mar02,1,62,test,0,male,Latino,,,,old,happy,female,,m,1415.0,True,False,
8,mar02,1,63,test,0,female,White,,,,new,,,,z,1336.0,True,False,
8,mar02,1,64,test,0,male,Black,,,,old,happy,male,,z,1084.0,False,False,
8,mar02,1,65,test,0,male,Asian,,,,old,angry,male,,m,600.0,True,False,
8,mar02,1,66,test,0,female,Black,,,,old,neutral,male,,m,765.0,True,False,
8,mar02,1,67,test,0,male,White,,,,new,,,,m,848.0,False,False,
8,mar02,1,68,test,0,female,Asian,,,,old,angry,male,,m,640.0,True,False,
8,mar02,1,69,test,0,male,Latino,,,,old,neutral,female,,z,1191.0,False,False,
8,mar02,1,70,test,0,male,Black,,,,new,,,,m,1058.0,False,False,
8,mar02,1,71,test,0,male,Latino,,,,old,angry,male,,z,1159.0,False,False,
8,mar02,1,72,test,0,male,Asian,,,,new,,,,z,1152.0,True,False,
8,mar02,1,73,test,0,male,Asian,,,,old,angry,male,,z,1008.0,False,False,
8,mar02,1,74,test,0,female,Black,,,,new,,,,m,898.0,False,False,
8,mar02,1,75,test,0,male,Black,,,,old,neutral,female,,m,722.0,True,False,
8,mar02,1,76,test,0,male,Black,,,,old,happy,male,,z,996.0,False,False,
8,mar02,1,77,test,0,male,Asian,,,,new,,,,m,765.0,False,False,
8,mar02,1,78,test,0,female,Latino,,,,old,happy,male,,z,750.0,False,False,
8,mar02,1,79,test,0,female,Asian,,,,old,neutral,male,,m,885.0,True,False,
8,mar02,1,80,test,0,female,Black,,,,new,,,,m,614.0,False,False,
8,mar02,1,81,test,0,female,White,,,,new,,,,z,1055.0,True,False,
8,mar02,1,82,test,0,male,Black,,,,new,,,,z,1111.0,True,False,
8,mar02,1,83,test,0,female,Asian,,,,new,,,,m,900.0,False,False,
8,mar02,1,84,test,0,male,Latino,,,,new,,,,m,795.0,False,False,
8,mar02,1,85,test,0,female,Asian,,,,old,neutral,female,,m,789.0,True,False,
8,mar02,1,86,test,0,male,Latino,,,,old,neutral,male,,m,917.0,True,False,
8,mar02,1,87,test,0,male,Asian,,,,new,,,,z,909.0,True,False,
8,mar02,1,88,test,0,female,White,,,,old,happy,female,,z,904.0,False,False,
8,mar02,1,89,test,0,male,Latino,,,,new,,,,m,973.0,False,False,
8,mar02,1,90,test,0,male,Black,,,,old,angry,female,,z,857.0,False,False,
8,mar02,1,91,test,0,male,Black,,,,old,happy,male,,z,809.0,False,False,
8,mar02,1,92,test,0,male,Black,,,,old,happy,female,,m,1214.0,True,False,
8,mar02,1,93,test,0,male,White,,,,new,,,,m,1104.0,False,False,
8,mar02,1,94,test,0,male,Asian,,,,new,,,,z,771.0,True,False,
8,mar02,1,95,test,0,female,White,,,,new,,,,m,676.0,False,False,
8,mar02,1,96,test,0,female,Black,,,,new,,,,z,798.0,True,False,
8,mar02,1,97,test,0,female,White,,,,new,,,,m,1314.0,False,False,
8,mar02,1,98,test,0,female,Asian,,,,old,neutral,female,,z,1057.0,False,False,
8,mar02,1,99,test,0,female,Latino,,,,old,neutral,female,,m,816.0,True,False,
8,mar02,1,100,test,0,male,Black,,,,old,angry,female,,m,750.0,True,False,
8,mar02,1,101,test,1,male,White,,,,old,happy,male,,m,866.0,True,False,
8,mar02,1,102,test,1,female,Asian,,,,old,happy,female,,m,729.0,True,False,
8,mar02,1,103,test,1,female,Black,,,,old,happy,male,,m,644.0,True,False,
8,mar02,1,104,test,1,male,White,,,,new,,,,z,946.0,True,False,
8,mar02,1,105,test,1,female,White,,,,old,happy,male,,m,742.0,True,False,
8,mar02,1,106,test,1,male,Latino,,,,old,neutral,female,,z,1099.0,False,False,
8,mar02,1,107,test,1,female,Black,,,,new,,,,z,1099.0,True,False,
8,mar02,1,108,test,1,female,Black,,,,old,angry,female,,z,1017.0,False,False,
8,mar02,1,109,test,1,female,Latino,,,,new,,,,z,1005.0,True,False,
8,mar02,1,110,test,1,female,White,,,,new,,,,m,683.0,False,False,
8,mar02,1,111,test,1,female,White,,,,new,,,,m,800.0,False,False,
8,mar02,1,112,test,1,female,Black,,,,old,angry,female,,m,847.0,True,False,
8,mar02,1,113,test,1,female,Asian,,,,new,,,,m,737.0,False,False,
8,mar02,1,114,test,1,male,Black,,,,new,,,,m,831.0,False,False,
8,mar02,1,115,test,1,male,Latino,,,,old,happy,female,,z,830.0,False,False,
8,mar02,1,116,test,1,male,Latino,,,,old,neutral,male,,m,826.0,True,False,
8,mar02,1,117,test,1,female,White,,,,old,angry,male,,m,732.0,True,False,
8,mar02,1,118,test,1,female,White,,,,new,,,,m,694.0,False,False,
8,mar02,1,119,test,1,female,Black,,,,old,neutral,male,,m,614.0,True,False,
8,mar02,1,120,test,1,male,Black,,,,old,angry,female,,z,728.0,False,False,
8,mar02,1,121,test,1,female,White,,,,old,angry,female,,z,918.0,False,False,
8,mar02,1,122,test,1,male,White,,,,new,,,,z,819.0,True,False,
8,mar02,1,123,test,1,male,Asian,,,,new,,,,m,654.0,False,False,
8,mar02,1,124,test,1,female,Black,,,,old,happy,male,,m,793.0,True,False,
8,mar02,1,125,test,1,female,Latino,,,,new,,,,m,1124.0,False,False,
8,mar02,1,126,test,1,male,Black,,,,new,,,,z,996.0,True,False,
8,mar02,1,127,test,1,male,White,,,,old,angry,female,,m,855.0,True,False,
8,mar02,1,128,test,1,female,Latino,,,,new,,,,m,1058.0,False,False,
8,mar02,1,129,test,1,male,Latino,,,,old,happy,male,,m,835.0,True,False,
8,mar02,1,130,test,1,female,Black,,,,old,happy,female,,z,956.0,False,False,
8,mar02,1,131,test,1,female,White,,,,old,angry,male,,z,834.0,False,False,
8,mar02,1,132,test,1,female,Black,,,,new,,,,z,937.0,True,False,
8,mar02,1,133,test,1,male,Latino,,,,old,neutral,female,,m,1146.0,True,False,
8,mar02,1,134,test,1,male,White,,,,new,,,,z,1135.0,True,False,
8,mar02,1,135,test,1,male,White,,,,old,angry,male,,m,802.0,True,False,
