subject_number,condition,trial_number,phase,block,target_gender,target_race,flanker_gender,flanker_race,flanker_emotion,stimulus_type,study_flanker_emotion,study_flanker_gender,pair_type,response,rt,correct,timed_out,rating,key_mapping,subject_id,study_id,session_id,test_mode,trial_index,target_id,target_filename,flanker_id,flanker_filename,correct_response,device_pixel_ratio
1,2,1,study,0,female,White,female,White,happy,,,,,z,771,True,False,,2,,,,False,17,WF-235,materials/cfd/Images/CFD/WF-235/CFD-WF-235-121-N.jpg,WF-012,materials/cfd/Images/CFD/WF-012/CFD-WF-012-007-HO.jpg,z,1
1,2,2,study,0,female,Latino,female,Black,neutral,,,,,z,521,True,False,,2,,,,False,19,LF-241,materials/cfd/Images/CFD/LF-241/CFD-LF-241-188-N.jpg,BF-004,materials/cfd/Images/CFD/BF-004/CFD-BF-004-014-N.jpg,z,1
1,2,3,study,0,male,White,male,Black,neutral,,,,,m,626,True,False,,2,,,,False,21,WM-227,materials/cfd/Images/CFD/WM-227/CFD-WM-227-099-N.jpg,BM-046,materials/cfd/Images/CFD/BM-046/CFD-BM-046-006-N.jpg,m,1
1,2,4,study,0,male,Asian,male,Black,angry,,,,,m,652,True,False,,2,,,,False,23,AM-216,materials/cfd/Images/CFD/AM-216/CFD-AM-216-114-N.jpg,BM-005,materials/cfd/Images/CFD/BM-005/CFD-BM-005-010-A.jpg,m,1
1,2,5,study,0,male,Black,female,White,neutral,,,,,m,514,True,False,,2,,,,False,25,BM-200,materials/cfd/Images/CFD/BM-200/CFD-BM-200-046-N.jpg,WF-244,materials/cfd/Images/CFD/WF-244/CFD-WF-244-163-N.jpg,m,1
1,2,6,study,0,female,Latino,female,White,angry,,,,,z,606,True,False,,2,,,,False,27,LF-249,materials/cfd/Images/CFD/LF-249/CFD-LF-249-132-N.jpg,WF-035,materials/cfd/Images/CFD/WF-035/CFD-WF-035-033-A.jpg,z,1
1,2,7,study,0,female,Asian,male,White,happy,,,,,z,601,True,False,,2,,,,False,29,AF-248,materials/cfd/Images/CFD/AF-248/CFD-AF-248-148-N.jpg,WM-022,materials/cfd/Images/CFD/WM-022/CFD-WM-022-005-HO.jpg,z,1
1,2,8,study,0,female,White,male,White,happy,,,,,m,951,False,False,,2,,,,False,31,WF-007,materials/cfd/Images/CFD/WF-007/CFD-WF-007-001-N.jpg,WM-003,materials/cfd/Images/CFD/WM-003/CFD-WM-003-003-HO.jpg,z,1
1,2,9,study,0,male,Asian,female,Black,neutral,,,,,m,568,True,False,,2,,,,False,33,AM-225,materials/cfd/Images/CFD/AM-225/CFD-AM-225-102-N.jpg,BF-251,materials/cfd/Images/CFD/BF-251/CFD-BF-251-211-N.jpg,m,1
1,2,10,study,0,female,Latino,female,Black,neutral,,,,,z,627,True,False,,2,,,,False,35,LF-204,materials/cfd/Images/CFD/LF-204/CFD-LF-204-133-N.jpg,BF-039,materials/cfd/Images/CFD/BF-039/CFD-BF-039-031-N.jpg,z,1
1,2,11,study,0,male,Black,female,White,happy,,,,,m,602,True,False,,2,,,,False,37,BM-235,materials/cfd/Images/CFD/BM-235/CFD-BM-235-226-N.jpg,WF-025,materials/cfd/Images/CFD/WF-025/CFD-WF-025-006-HO.jpg,m,1
1,2,12,study,0,female,Black,female,Black,happy,,,,,z,677,True,False,,2,,,,False,39,BF-231,materials/cfd/Images/CFD/BF-231/CFD-BF-231-202-N.jpg,BF-038,materials/cfd/Images/CFD/BF-038/CFD-BF-038-004-HO.jpg,z,1
1,2,13,study,0,female,White,female,Black,happy,,,,,z,524,True,False,,2,,,,False,41,WF-202,materials/cfd/Images/CFD/WF-202/CFD-WF-202-056-N.jpg,BF-014,materials/cfd/Images/CFD/BF-014/CFD-BF-014-004-HO.jpg,z,1
1,2,14,study,0,female,Black,male,White,neutral,,,,,z,648,True,False,,2,,,,False,43,BF-229,materials/cfd/Images/CFD/BF-229/CFD-BF-229-179-N.jpg,WM-200,materials/cfd/Images/CFD/WM-200/CFD-WM-200-034-N.jpg,z,1
1,2,15,study,0,male,Black,female,White,happy,,,,,m,689,True,False,,2,,,,False,45,BM-020,materials/cfd/Images/CFD/BM-020/CFD-BM-020-001-N.jpg,WF-010,materials/cfd/Images/CFD/WF-010/CFD-WF-010-006-HO.jpg,m,1
1,2,16,study,0,male,Asian,female,Black,angry,,,,,m,548,True,False,,2,,,,False,47,AM-233,materials/cfd/Images/CFD/AM-233/CFD-AM-233-236-N.jpg,BF-012,materials/cfd/Images/CFD/BF-012/CFD-BF-012-015-A.jpg,m,1
1,2,17,study,0,male,Asian,female,Black,angry,,,,,m,608,True,False,,2,,,,False,49,AM-220,materials/cfd/Images/CFD/AM-220/CFD-AM-220-134-N.jpg,BF-011,materials/cfd/Images/CFD/BF-011/CFD-BF-011-011-A.jpg,m,1
1,2,18,study,0,female,White,female,White,neutral,,,,,z,619,True,False,,2,,,,False,51,WF-026,materials/cfd/Images/CFD/WF-026/CFD-WF-026-002-N.jpg,WF-226,materials/cfd/Images/CFD/WF-226/CFD-WF-226-095-N.jpg,z,1
1,2,19,study,0,female,White,male,White,angry,,,,,z,510,True,False,,2,,,,False,53,WF-204,materials/cfd/Images/CFD/WF-204/CFD-WF-204-038-N.jpg,WM-012,materials/cfd/Images/CFD/WM-012/CFD-WM-012-015-A.jpg,z,1
1,2,20,study,0,male,Black,female,Black,angry,,,,,m,554,True,False,,2,,,,False,55,BM-215,materials/cfd/Images/CFD/BM-215/CFD-BM-215-155-N.jpg,BF-010,materials/cfd/Images/CFD/BF-010/CFD-BF-010-019-A.jpg,m,1
1,2,21,study,0,female,Black,female,Black,angry,,,,,z,629,True,False,,2,,,,False,57,BF-003,materials/cfd/Images/CFD/BF-003/CFD-BF-003-003-N.jpg,BF-037,materials/cfd/Images/CFD/BF-037/CFD-BF-037-013-A.jpg,z,1
1,2,22,study,0,male,Latino,female,Black,happy,,,,,m,654,True,False,,2,,,,False,59,LM-227,materials/cfd/Images/CFD/LM-227/CFD-LM-227-103-N.jpg,BF-020,materials/cfd/Images/CFD/BF-020/CFD-BF-020-004-HO.jpg,m,1
1,2,23,study,0,male,White,male,White,happy,,,,,m,698,True,False,,2,,,,False,61,WM-238,materials/cfd/Images/CFD/WM-238/CFD-WM-238-020-N.jpg,WM-009,materials/cfd/Images/CFD/WM-009/CFD-WM-009-004-HO.jpg,m,1
1,2,24,study,0,male,White,female,White,angry,,,,,m,591,True,False,,2,,,,False,63,WM-023,materials/cfd/Images/CFD/WM-023/CFD-WM-023-001-N.jpg,WF-037,materials/cfd/Images/CFD/WF-037/CFD-WF-037-016-A.jpg,m,1
1,2,25,study,0,female,White,female,White,happy,,,,,z,617,True,False,,2,,,,False,65,WF-034,materials/cfd/Images/CFD/WF-034/CFD-WF-034-006-N.jpg,WF-030,materials/cfd/Images/CFD/WF-030/CFD-WF-030-003-HO.jpg,z,1
1,2,26,study,0,male,Latino,male,White,neutral,,,,,m,660,True,False,,2,,,,False,67,LM-209,materials/cfd/Images/CFD/LM-209/CFD-LM-209-111-N.jpg,WM-253,materials/cfd/Images/CFD/WM-253/CFD-WM-253-119-N.jpg,m,1
1,2,27,study,0,female,Black,female,White,happy,,,,,z,1060,True,False,,2,,,,False,69,BF-252,materials/cfd/Images/CFD/BF-252/CFD-BF-252-191-N.jpg,WF-003,materials/cfd/Images/CFD/WF-003/CFD-WF-003-004-HO.jpg,z,1
1,2,28,study,0,male,White,male,White,angry,,,,,m,630,True,False,,2,,,,False,71,WM-233,materials/cfd/Images/CFD/WM-233/CFD-WM-233-106-N.jpg,WM-041,materials/cfd/Images/CFD/WM-041/CFD-WM-041-009-A.jpg,m,1
1,2,29,study,0,male,Latino,male,White,happy,,,,,m,1029,True,False,,2,,,,False,73,LM-243,materials/cfd/Images/CFD/LM-243/CFD-LM-243-075-N.jpg,WM-034,materials/cfd/Images/CFD/WM-034/CFD-WM-034-035-HO.jpg,m,1
1,2,30,study,0,male,Latino,male,Black,neutral,,,,,m,616,True,False,,2,,,,False,75,LM-240,materials/cfd/Images/CFD/LM-240/CFD-LM-240-013-N.jpg,BM-250,materials/cfd/Images/CFD/BM-250/CFD-BM-250-170-N.jpg,m,1
1,2,31,study,1,male,Black,female,White,happy,,,,,m,435,True,False,,2,,,,False,78,BM-045,materials/cfd/Images/CFD/BM-045/CFD-BM-045-004-N.jpg,WF-005,materials/cfd/Images/CFD/WF-005/CFD-WF-005-013-HO.jpg,m,1
1,2,32,study,1,female,Latino,female,Black,angry,,,,,z,588,True,False,,2,,,,False,80,LF-220,materials/cfd/Images/CFD/LF-220/CFD-LF-220-120-N.jpg,BF-044,materials/cfd/Images/CFD/BF-044/CFD-BF-044-044-A.jpg,z,1
1,2,33,study,1,male,Asian,male,Black,angry,,,,,m,500,True,False,,2,,,,False,82,AM-243,materials/cfd/Images/CFD/AM-243/CFD-AM-243-212-N.jpg,BM-036,materials/cfd/Images/CFD/BM-036/CFD-BM-036-037-A.jpg,m,1
1,2,34,study,1,female,White,female,White,angry,,,,,z,577,True,False,,2,,,,False,84,WF-246,materials/cfd/Images/CFD/WF-246/CFD-WF-246-087-N.jpg,WF-031,materials/cfd/Images/CFD/WF-031/CFD-WF-031-015-A.jpg,z,1
1,2,35,study,1,female,Latino,male,Black,happy,,,,,z,536,True,False,,2,,,,False,86,LF-215,materials/cfd/Images/CFD/LF-215/CFD-LF-215-157-N.jpg,BM-021,materials/cfd/Images/CFD/BM-021/CFD-BM-021-022-HO.jpg,z,1
1,2,36,study,1,male,White,male,Black,angry,,,,,m,644,True,False,,2,,,,False,88,WM-211,materials/cfd/Images/CFD/WM-211/CFD-WM-211-054-N.jpg,BM-019,materials/cfd/Images/CFD/BM-019/CFD-BM-019-045-A.jpg,m,1
1,2,37,study,1,female,Asian,male,Black,happy,,,,,z,670,True,False,,2,,,,False,90,AF-225,materials/cfd/Images/CFD/AF-225/CFD-AF-225-141-N.jpg,BM-003,materials/cfd/Images/CFD/BM-003/CFD-BM-003-021-HO.jpg,z,1
1,2,38,study,1,male,Black,male,White,happy,,,,,m,612,True,False,,2,,,,False,92,BM-243,materials/cfd/Images/CFD/BM-243/CFD-BM-243-218-N.jpg,WM-028,materials/cfd/Images/CFD/WM-028/CFD-WM-028-007-HO.jpg,m,1
1,2,39,study,1,male,Latino,female,Black,neutral,,,,,m,606,True,False,,2,,,,False,94,LM-228,materials/cfd/Images/CFD/LM-228/CFD-LM-228-188-N.jpg,BF-210,materials/cfd/Images/CFD/BF-210/CFD-BF-210-130-N.jpg,m,1
1,2,40,study,1,female,Black,male,White,angry,,,,,z,516,True,False,,2,,,,False,96,BF-016,materials/cfd/Images/CFD/BF-016/CFD-BF-016-017-N.jpg,WM-024,materials/cfd/Images/CFD/WM-024/CFD-WM-024-010-A.jpg,z,1
1,2,41,study,1,female,Black,female,White,neutral,,,,,z,674,True,False,,2,,,,False,98,BF-027,materials/cfd/Images/CFD/BF-027/CFD-BF-027-002-N.jpg,WF-019,materials/cfd/Images/CFD/WF-019/CFD-WF-019-005-N.jpg,z,1
1,2,42,study,1,female,White,female,White,neutral,,,,,z,437,True,False,,2,,,,False,100,WF-206,materials/cfd/Images/CFD/WF-206/CFD-WF-206-147-N.jpg,WF-233,materials/cfd/Images/CFD/WF-233/CFD-WF-233-112-N.jpg,z,1
1,2,43,study,1,male,Asian,male,Black,happy,,,,,m,608,True,False,,2,,,,False,102,AM-227,materials/cfd/Images/CFD/AM-227/CFD-AM-227-184-N.jpg,BM-032,materials/cfd/Images/CFD/BM-032/CFD-BM-032-007-HO.jpg,m,1
1,2,44,study,1,male,White,female,White,neutral,,,,,m,569,True,False,,2,,,,False,104,WM-251,materials/cfd/Images/CFD/WM-251/CFD-WM-251-002-N.jpg,WF-234,materials/cfd/Images/CFD/WF-234/CFD-WF-234-086-N.jpg,m,1
1,2,45,study,1,female,White,male,White,neutral,,,,,z,628,True,False,,2,,,,False,106,WF-020,materials/cfd/Images/CFD/WF-020/CFD-WF-020-002-N.jpg,WM-229,materials/cfd/Images/CFD/WM-229/CFD-WM-229-129-N.jpg,z,1
1,2,46,study,1,female,Black,male,Black,neutral,,,,,z,685,True,False,,2,,,,False,108,BF-242,materials/cfd/Images/CFD/BF-242/CFD-BF-242-154-N.jpg,BM-224,materials/cfd/Images/CFD/BM-224/CFD-BM-224-073-N.jpg,z,1
1,2,47,study,1,female,White,male,Black,angry,,,,,z,481,True,False,,2,,,,False,110,WF-243,materials/cfd/Images/CFD/WF-243/CFD-WF-243-148-N.jpg,BM-031,materials/cfd/Images/CFD/BM-031/CFD-BM-031-030-A.jpg,z,1
1,2,48,study,1,female,Black,male,Black,happy,,,,,z,623,True,False,,2,,,,False,112,BF-213,materials/cfd/Images/CFD/BF-213/CFD-BF-213-188-N.jpg,BM-010,materials/cfd/Images/CFD/BM-010/CFD-BM-010-004-HO.jpg,z,1
1,2,49,study,1,male,White,male,Black,neutral,,,,,m,534,True,False,,2,,,,False,114,WM-015,materials/cfd/Images/CFD/WM-015/CFD-WM-015-002-N.jpg,BM-240,materials/cfd/Images/CFD/BM-240/CFD-BM-240-207-N.jpg,m,1
1,2,50,study,1,female,Black,male,White,neutral,,,,,z,659,True,False,,2,,,,False,116,BF-219,materials/cfd/Images/CFD/BF-219/CFD-BF-219-137-N.jpg,WM-222,materials/cfd/Images/CFD/WM-222/CFD-WM-222-057-N.jpg,z,1
1,2,51,study,1,male,Black,female,Black,angry,,,,,m,669,True,False,,2,,,,False,118,BM-227,materials/cfd/Images/CFD/BM-227/CFD-BM-227-191-N.jpg,BF-028,materials/cfd/Images/CFD/BF-028/CFD-BF-028-021-A.jpg,m,1
1,2,52,study,1,female,Asian,female,Black,angry,,,,,z,547,True,False,,2,,,,False,120,AF-235,materials/cfd/Images/CFD/AF-235/CFD-AF-235-170-N.jpg,BF-018,materials/cfd/Images/CFD/BF-018/CFD-BF-018-019-A.jpg,z,1
1,2,53,study,1,male,Black,male,Black,angry,,,,,m,573,True,False,,2,,,,False,122,BM-236,materials/cfd/Images/CFD/BM-236/CFD-BM-236-248-N.jpg,BM-024,materials/cfd/Images/CFD/BM-024/CFD-BM-024-018-A.jpg,m,1
1,2,54,study,1,male,White,male,Black,happy,,,,,m,746,True,False,,2,,,,False,124,WM-249,materials/cfd/Images/CFD/WM-249/CFD-WM-249-239-N.jpg,BM-037,materials/cfd/Images/CFD/BM-037/CFD-BM-037-036-HO.jpg,m,1
1,2,55,study,1,female,Black,male,Black,angry,,,,,z,574,True,False,,2,,,,False,126,BF-005,materials/cfd/Images/CFD/BF-005/CFD-BF-005-001-N.jpg,BM-039,materials/cfd/Images/CFD/BM-039/CFD-BM-039-037-A.jpg,z,1
1,2,56,study,1,male,Black,male,Black,neutral,,,,,m,583,True,False,,2,,,,False,128,BM-041,materials/cfd/Images/CFD/BM-041/CFD-BM-041-035-N.jpg,BM-201,materials/cfd/Images/CFD/BM-201/CFD-BM-201-077-N.jpg,m,1
1,2,57,study,1,female,Asian,male,Black,neutral,,,,,z,905,True,False,,2,,,,False,130,AF-240,materials/cfd/Images/CFD/AF-240/CFD-AF-240-206-N.jpg,BM-230,materials/cfd/Images/CFD/BM-230/CFD-BM-230-232-N.jpg,z,1
1,2,58,study,1,male,White,female,Black,neutral,,,,,m,571,True,False,,2,,,,False,132,WM-025,materials/cfd/Images/CFD/WM-025/CFD-WM-025-002-N.jpg,BF-041,materials/cfd/Images/CFD/BF-041/CFD-BF-041-001-N.jpg,m,1
1,2,59,study,1,male,White,female,Black,happy,,,,,m,659,True,False,,2,,,,False,134,WM-241,materials/cfd/Images/CFD/WM-241/CFD-WM-241-072-N.jpg,BF-015,materials/cfd/Images/CFD/BF-015/CFD-BF-015-006-HO.jpg,m,1
1,2,60,study,1,female,Latino,male,White,angry,,,,,z,492,True,False,,2,,,,False,136,LF-239,materials/cfd/Images/CFD/LF-239/CFD-LF-239-148-N.jpg,WM-018,materials/cfd/Images/CFD/WM-018/CFD-WM-018-007-A.jpg,z,1
1,2,61,test,0,male,White,male,Black,angry,,,,rearranged,z,1052,True,False,,2,,,,False,155,WM-211,materials/cfd/Images/CFD/WM-211/CFD-WM-211-054-N.jpg,BM-005,materials/cfd/Images/CFD/BM-005/CFD-BM-005-010-A.jpg,z,1
1,2,62,test,0,female,Latino,female,Black,angry,,,,rearranged,z,1022,True,False,,2,,,,False,157,LF-220,materials/cfd/Images/CFD/LF-220/CFD-LF-220-120-N.jpg,BF-018,materials/cfd/Images/CFD/BF-018/CFD-BF-018-019-A.jpg,z,1
1,2,63,test,0,male,Black,female,White,happy,,,,intact,z,977,False,False,,2,,,,False,159,BM-020,materials/cfd/Images/CFD/BM-020/CFD-BM-020-001-N.jpg,WF-010,materials/cfd/Images/CFD/WF-010/CFD-WF-010-006-HO.jpg,m,1
1,2,64,test,0,male,White,male,White,angry,,,,intact,m,1096,True,False,,2,,,,False,161,WM-233,materials/cfd/Images/CFD/WM-233/CFD-WM-233-106-N.jpg,WM-041,materials/cfd/Images/CFD/WM-041/CFD-WM-041-009-A.jpg,m,1
1,2,65,test,0,male,Latino,male,Black,neutral,,,,intact,z,1129,False,False,,2,,,,False,163,LM-240,materials/cfd/Images/CFD/LM-240/CFD-LM-240-013-N.jpg,BM-250,materials/cfd/Images/CFD/BM-250/CFD-BM-250-170-N.jpg,m,1
1,2,66,test,0,female,Latino,male,Black,happy,,,,intact,z,1001,False,False,,2,,,,False,165,LF-215,materials/cfd/Images/CFD/LF-215/CFD-LF-215-157-N.jpg,BM-021,materials/cfd/Images/CFD/BM-021/CFD-BM-021-022-HO.jpg,m,1
1,2,67,test,0,female,White,female,White,neutral,,,,rearranged,z,1021,True,False,,2,,,,False,167,WF-206,materials/cfd/Images/CFD/WF-206/CFD-WF-206-147-N.jpg,WF-019,materials/cfd/Images/CFD/WF-019/CFD-WF-019-005-N.jpg,z,1
1,2,68,test,0,male,White,female,Black,angry,,,,rearranged,m,1662,False,False,,2,,,,False,169,WM-023,materials/cfd/Images/CFD/WM-023/CFD-WM-023-001-N.jpg,BF-012,materials/cfd/Images/CFD/BF-012/CFD-BF-012-015-A.jpg,z,1
1,2,69,test,0,male,White,male,Black,neutral,,,,rearranged,z,1746,True,False,,2,,,,False,171,WM-015,materials/cfd/Images/CFD/WM-015/CFD-WM-015-002-N.jpg,BM-046,materials/cfd/Images/CFD/BM-046/CFD-BM-046-006-N.jpg,z,1
1,2,70,test,0,male,Latino,male,White,neutral,,,,intact,z,985,False,False,,2,,,,False,173,LM-209,materials/cfd/Images/CFD/LM-209/CFD-LM-209-111-N.jpg,WM-253,materials/cfd/Images/CFD/WM-253/CFD-WM-253-119-N.jpg,m,1
1,2,71,test,0,female,Latino,male,Black,angry,,,,rearranged,z,1349,True,False,,2,,,,False,175,LF-239,materials/cfd/Images/CFD/LF-239/CFD-LF-239-148-N.jpg,BM-031,materials/cfd/Images/CFD/BM-031/CFD-BM-031-030-A.jpg,z,1
1,2,72,test,0,female,White,male,White,neutral,,,,intact,z,938,False,False,,2,,,,False,177,WF-020,materials/cfd/Images/CFD/WF-020/CFD-WF-020-002-N.jpg,WM-229,materials/cfd/Images/CFD/WM-229/CFD-WM-229-129-N.jpg,m,1
1,2,73,test,0,male,Black,female,Black,angry,,,,intact,m,908,True,False,,2,,,,False,179,BM-215,materials/cfd/Images/CFD/BM-215/CFD-BM-215-155-N.jpg,BF-010,materials/cfd/Images/CFD/BF-010/CFD-BF-010-019-A.jpg,m,1
1,2,74,test,0,male,Black,male,White,happy,,,,rearranged,m,1306,False,False,,2,,,,False,181,BM-243,materials/cfd/Images/CFD/BM-243/CFD-BM-243-218-N.jpg,WM-034,materials/cfd/Images/CFD/WM-034/CFD-WM-034-035-HO.jpg,z,1
1,2,75,test,0,female,White,male,White,angry,,,,intact,z,1208,False,False,,2,,,,False,183,WF-204,materials/cfd/Images/CFD/WF-204/CFD-WF-204-038-N.jpg,WM-012,materials/cfd/Images/CFD/WM-012/CFD-WM-012-015-A.jpg,m,1
1,2,76,test,0,male,Asian,male,Black,angry,,,,rearranged,z,1314,True,False,,2,,,,False,185,AM-216,materials/cfd/Images/CFD/AM-216/CFD-AM-216-114-N.jpg,BM-036,materials/cfd/Images/CFD/BM-036/CFD-BM-036-037-A.jpg,z,1
1,2,77,test,0,female,Asian,male,Black,happy,,,,rearranged,z,1301,True,False,,2,,,,False,187,AF-248,materials/cfd/Images/CFD/AF-248/CFD-AF-248-148-N.jpg,BM-010,materials/cfd/Images/CFD/BM-010/CFD-BM-010-004-HO.jpg,z,1
1,2,78,test,0,female,White,female,White,neutral,,,,rearranged,z,1314,True,False,,2,,,,False,189,WF-026,materials/cfd/Images/CFD/WF-026/CFD-WF-026-002-N.jpg,WF-233,materials/cfd/Images/CFD/WF-233/CFD-WF-233-112-N.jpg,z,1
1,2,79,test,0,female,White,female,White,happy,,,,rearranged,z,998,True,False,,2,,,,False,191,WF-235,materials/cfd/Images/CFD/WF-235/CFD-WF-235-121-N.jpg,WF-030,materials/cfd/Images/CFD/WF-030/CFD-WF-030-003-HO.jpg,z,1
1,2,80,test,0,male,White,male,White,happy,,,,intact,m,1087,True,False,,2,,,,False,193,WM-238,materials/cfd/Images/CFD/WM-238/CFD-WM-238-020-N.jpg,WM-009,materials/cfd/Images/CFD/WM-009/CFD-WM-009-004-HO.jpg,m,1
1,2,81,test,0,male,Asian,male,Black,angry,,,,rearranged,z,1121,True,False,,2,,,,False,195,AM-243,materials/cfd/Images/CFD/AM-243/CFD-AM-243-212-N.jpg,BM-019,materials/cfd/Images/CFD/BM-019/CFD-BM-019-045-A.jpg,z,1
1,2,82,test,0,male,Asian,female,White,angry,,,,rearranged,m,1509,False,False,,2,,,,False,197,AM-220,materials/cfd/Images/CFD/AM-220/CFD-AM-220-134-N.jpg,WF-037,materials/cfd/Images/CFD/WF-037/CFD-WF-037-016-A.jpg,z,1
1,2,83,test,0,male,Black,female,White,neutral,,,,rearranged,z,966,True,False,,2,,,,False,199,BM-200,materials/cfd/Images/CFD/BM-200/CFD-BM-200-046-N.jpg,WF-234,materials/cfd/Images/CFD/WF-234/CFD-WF-234-086-N.jpg,z,1
1,2,84,test,0,male,Latino,male,Black,happy,,,,rearranged,m,1524,False,False,,2,,,,False,201,LM-243,materials/cfd/Images/CFD/LM-243/CFD-LM-243-075-N.jpg,BM-032,materials/cfd/Images/CFD/BM-032/CFD-BM-032-007-HO.jpg,z,1
1,2,85,test,0,female,Latino,female,Black,neutral,,,,intact,m,1206,True,False,,2,,,,False,203,LF-204,materials/cfd/Images/CFD/LF-204/CFD-LF-204-133-N.jpg,BF-039,materials/cfd/Images/CFD/BF-039/CFD-BF-039-031-N.jpg,m,1
1,2,86,test,0,female,Asian,male,White,happy,,,,rearranged,z,1121,True,False,,2,,,,False,205,AF-225,materials/cfd/Images/CFD/AF-225/CFD-AF-225-141-N.jpg,WM-022,materials/cfd/Images/CFD/WM-022/CFD-WM-022-005-HO.jpg,z,1
1,2,87,test,0,male,Asian,female,Black,neutral,,,,intact,z,683,False,False,,2,,,,False,207,AM-225,materials/cfd/Images/CFD/AM-225/CFD-AM-225-102-N.jpg,BF-251,materials/cfd/Images/CFD/BF-251/CFD-BF-251-211-N.jpg,m,1
1,2,88,test,0,male,Black,female,White,happy,,,,intact,z,792,False,False,,2,,,,False,209,BM-235,materials/cfd/Images/CFD/BM-235/CFD-BM-235-226-N.jpg,WF-025,materials/cfd/Images/CFD/WF-025/CFD-WF-025-006-HO.jpg,m,1
1,2,89,test,0,male,Latino,female,White,neutral,,,,rearranged,z,1408,True,False,,2,,,,False,211,LM-228,materials/cfd/Images/CFD/LM-228/CFD-LM-228-188-N.jpg,WF-244,materials/cfd/Images/CFD/WF-244/CFD-WF-244-163-N.jpg,z,1
1,2,90,test,0,female,Asian,male,White,neutral,,,,rearranged,z,714,True,False,,2,,,,False,213,AF-240,materials/cfd/Images/CFD/AF-240/CFD-AF-240-206-N.jpg,WM-200,materials/cfd/Images/CFD/WM-200/CFD-WM-200-034-N.jpg,z,1
1,2,91,test,1,female,Asian,female,Black,angry,,,,rearranged,z,1400,True,False,,2,,,,False,216,AF-235,materials/cfd/Images/CFD/AF-235/CFD-AF-235-170-N.jpg,BF-037,materials/cfd/Images/CFD/BF-037/CFD-BF-037-013-A.jpg,z,1
1,2,92,test,1,male,White,female,White,happy,,,,rearranged,m,3012,False,False,,2,,,,False,218,WM-241,materials/cfd/Images/CFD/WM-241/CFD-WM-241-072-N.jpg,WF-005,materials/cfd/Images/CFD/WF-005/CFD-WF-005-013-HO.jpg,z,1
1,2,93,test,1,female,White,male,White,angry,,,,rearranged,m,1343,False,False,,2,,,,False,220,WF-243,materials/cfd/Images/CFD/WF-243/CFD-WF-243-148-N.jpg,WM-024,materials/cfd/Images/CFD/WM-024/CFD-WM-024-010-A.jpg,z,1
1,2,94,test,1,female,Black,female,Black,angry,,,,rearranged,z,1271,True,False,,2,,,,False,222,BF-003,materials/cfd/Images/CFD/BF-003/CFD-BF-003-003-N.jpg,BF-044,materials/cfd/Images/CFD/BF-044/CFD-BF-044-044-A.jpg,z,1
1,2,95,test,1,female,Latino,female,White,angry,,,,intact,z,1196,False,False,,2,,,,False,224,LF-249,materials/cfd/Images/CFD/LF-249/CFD-LF-249-132-N.jpg,WF-035,materials/cfd/Images/CFD/WF-035/CFD-WF-035-033-A.jpg,m,1
1,2,96,test,1,female,White,male,White,happy,,,,intact,z,1074,False,False,,2,,,,False,226,WF-007,materials/cfd/Images/CFD/WF-007/CFD-WF-007-001-N.jpg,WM-003,materials/cfd/Images/CFD/WM-003/CFD-WM-003-003-HO.jpg,m,1
1,2,97,test,1,female,White,female,White,happy,,,,rearranged,z,2198,True,False,,2,,,,False,228,WF-202,materials/cfd/Images/CFD/WF-202/CFD-WF-202-056-N.jpg,WF-012,materials/cfd/Images/CFD/WF-012/CFD-WF-012-007-HO.jpg,z,1
1,2,98,test,1,male,Black,male,Black,neutral,,,,rearranged,m,1290,False,False,,2,,,,False,230,BM-041,materials/cfd/Images/CFD/BM-041/CFD-BM-041-035-N.jpg,BM-240,materials/cfd/Images/CFD/BM-240/CFD-BM-240-207-N.jpg,z,1
1,2,99,test,1,female,Black,male,White,angry,,,,rearranged,z,1267,True,False,,2,,,,False,232,BF-016,materials/cfd/Images/CFD/BF-016/CFD-BF-016-017-N.jpg,WM-018,materials/cfd/Images/CFD/WM-018/CFD-WM-018-007-A.jpg,z,1
1,2,100,test,1,female,Black,female,White,happy,,,,intact,z,760,False,False,,2,,,,False,234,BF-252,materials/cfd/Images/CFD/BF-252/CFD-BF-252-191-N.jpg,WF-003,materials/cfd/Images/CFD/WF-003/CFD-WF-003-004-HO.jpg,m,1
1,2,101,test,1,male,White,male,Black,happy,,,,intact,z,945,False,False,,2,,,,False,236,WM-249,materials/cfd/Images/CFD/WM-249/CFD-WM-249-239-N.jpg,BM-037,materials/cfd/Images/CFD/BM-037/CFD-BM-037-036-HO.jpg,m,1
1,2,102,test,1,female,Black,female,White,neutral,,,,rearranged,z,817,True,False,,2,,,,False,238,BF-027,materials/cfd/Images/CFD/BF-027/CFD-BF-027-002-N.jpg,WF-226,materials/cfd/Images/CFD/WF-226/CFD-WF-226-095-N.jpg,z,1
1,2,103,test,1,female,Black,male,Black,happy,,,,rearranged,z,841,True,False,,2,,,,False,240,BF-213,materials/cfd/Images/CFD/BF-213/CFD-BF-213-188-N.jpg,BM-003,materials/cfd/Images/CFD/BM-003/CFD-BM-003-021-HO.jpg,z,1
1,2,104,test,1,female,Black,male,White,neutral,,,,intact,z,878,False,False,,2,,,,False,242,BF-219,materials/cfd/Images/CFD/BF-219/CFD-BF-219-137-N.jpg,WM-222,materials/cfd/Images/CFD/WM-222/CFD-WM-222-057-N.jpg,m,1
1,2,105,test,1,male,Black,female,Black,happy,,,,rearranged,z,543,True,False,,2,,,,False,244,BM-045,materials/cfd/Images/CFD/BM-045/CFD-BM-045-004-N.jpg,BF-020,materials/cfd/Images/CFD/BF-020/CFD-BF-020-004-HO.jpg,z,1
1,2,106,test,1,female,Latino,female,Black,neutral,,,,intact,z,878,False,False,,2,,,,False,246,LF-241,materials/cfd/Images/CFD/LF-241/CFD-LF-241-188-N.jpg,BF-004,materials/cfd/Images/CFD/BF-004/CFD-BF-004-014-N.jpg,m,1
1,2,107,test,1,male,Asian,male,White,happy,,,,rearranged,z,1549,True,False,,2,,,,False,248,AM-227,materials/cfd/Images/CFD/AM-227/CFD-AM-227-184-N.jpg,WM-028,materials/cfd/Images/CFD/WM-028/CFD-WM-028-007-HO.jpg,z,1
1,2,108,test,1,female,Black,female,Black,happy,,,,intact,m,1181,True,False,,2,,,,False,250,BF-231,materials/cfd/Images/CFD/BF-231/CFD-BF-231-202-N.jpg,BF-038,materials/cfd/Images/CFD/BF-038/CFD-BF-038-004-HO.jpg,m,1
1,2,109,test,1,female,Black,male,Black,neutral,,,,rearranged,z,865,True,False,,2,,,,False,252,BF-229,materials/cfd/Images/CFD/BF-229/CFD-BF-229-179-N.jpg,BM-224,materials/cfd/Images/CFD/BM-224/CFD-BM-224-073-N.jpg,z,1
1,2,110,test,1,female,White,female,Black,happy,,,,rearranged,z,756,True,False,,2,,,,False,254,WF-034,materials/cfd/Images/CFD/WF-034/CFD-WF-034-006-N.jpg,BF-014,materials/cfd/Images/CFD/BF-014/CFD-BF-014-004-HO.jpg,z,1
1,2,111,test,1,female,Black,male,Black,angry,,,,intact,z,991,False,False,,2,,,,False,256,BF-005,materials/cfd/Images/CFD/BF-005/CFD-BF-005-001-N.jpg,BM-039,materials/cfd/Images/CFD/BM-039/CFD-BM-039-037-A.jpg,m,1
1,2,112,test,1,female,Black,male,Black,neutral,,,,rearranged,z,800,True,False,,2,,,,False,258,BF-242,materials/cfd/Images/CFD/BF-242/CFD-BF-242-154-N.jpg,BM-230,materials/cfd/Images/CFD/BM-230/CFD-BM-230-232-N.jpg,z,1
1,2,113,test,1,male,White,female,Black,neutral,,,,intact,z,933,False,False,,2,,,,False,260,WM-025,materials/cfd/Images/CFD/WM-025/CFD-WM-025-002-N.jpg,BF-041,materials/cfd/Images/CFD/BF-041/CFD-BF-041-001-N.jpg,m,1
1,2,114,test,1,male,Black,male,Black,angry,,,,intact,z,856,False,False,,2,,,,False,262,BM-236,materials/cfd/Images/CFD/BM-236/CFD-BM-236-248-N.jpg,BM-024,materials/cfd/Images/CFD/BM-024/CFD-BM-024-018-A.jpg,m,1
1,2,115,test,1,female,White,female,White,angry,,,,intact,z,1072,False,False,,2,,,,False,264,WF-246,materials/cfd/Images/CFD/WF-246/CFD-WF-246-087-N.jpg,WF-031,materials/cfd/Images/CFD/WF-031/CFD-WF-031-015-A.jpg,m,1
1,2,116,test,1,male,White,male,Black,neutral,,,,rearranged,z,972,True,False,,2,,,,False,266,WM-227,materials/cfd/Images/CFD/WM-227/CFD-WM-227-099-N.jpg,BM-201,materials/cfd/Images/CFD/BM-201/CFD-BM-201-077-N.jpg,z,1
1,2,117,test,1,male,White,female,Black,neutral,,,,rearranged,m,1120,False,False,,2,,,,False,268,WM-251,materials/cfd/Images/CFD/WM-251/CFD-WM-251-002-N.jpg,BF-210,materials/cfd/Images/CFD/BF-210/CFD-BF-210-130-N.jpg,z,1
1,2,118,test,1,male,Black,female,Black,angry,,,,intact,z,1033,False,False,,2,,,,False,270,BM-227,materials/cfd/Images/CFD/BM-227/CFD-BM-227-191-N.jpg,BF-028,materials/cfd/Images/CFD/BF-028/CFD-BF-028-021-A.jpg,m,1
1,2,119,test,1,male,Asian,female,Black,angry,,,,rearranged,z,970,True,False,,2,,,,False,272,AM-233,materials/cfd/Images/CFD/AM-233/CFD-AM-233-236-N.jpg,BF-011,materials/cfd/Images/CFD/BF-011/CFD-BF-011-011-A.jpg,z,1
1,2,120,test,1,male,Latino,female,Black,happy,,,,rearranged,z,1067,True,False,,2,,,,False,274,LM-227,materials/cfd/Images/CFD/LM-227/CFD-LM-227-103-N.jpg,BF-015,materials/cfd/Images/CFD/BF-015/CFD-BF-015-006-HO.jpg,z,1
2,2,1,study,0,male,Latino,female,Black,angry,,,,,z,2207,False,False,,2,,,,False,17,LM-218,materials/cfd/Images/CFD/LM-218/CFD-LM-218-183-N.jpg,BF-013,materials/cfd/Images/CFD/BF-013/CFD-BF-013-017-A.jpg,m,1
2,2,2,study,0,female,Black,male,Black,neutral,,,,,m,1506,False,False,,2,,,,False,19,BF-043,materials/cfd/Images/CFD/BF-043/CFD-BF-043-003-N.jpg,BM-021,materials/cfd/Images/CFD/BM-021/CFD-BM-021-021-N.jpg,z,1
2,2,3,study,0,male,Latino,male,Black,happy,,,,,m,953,True,False,,2,,,,False,21,LM-235,materials/cfd/Images/CFD/LM-235/CFD-LM-235-231-N.jpg,BM-020,materials/cfd/Images/CFD/BM-020/CFD-BM-020-026-HO.jpg,m,1
2,2,4,study,0,female,Black,female,White,angry,,,,,z,2106,True,False,,2,,,,False,23,BF-019,materials/cfd/Images/CFD/BF-019/CFD-BF-019-001-N.jpg,WF-020,materials/cfd/Images/CFD/WF-020/CFD-WF-020-012-A.jpg,z,1
2,2,5,study,0,female,White,male,White,happy,,,,,m,2821,False,False,,2,,,,False,25,WF-217,materials/cfd/Images/CFD/WF-217/CFD-WF-217-085-N.jpg,WM-029,materials/cfd/Images/CFD/WM-029/CFD-WM-029-029-HO.jpg,z,1
2,2,6,study,0,male,Black,male,White,happy,,,,,m,837,True,False,,2,,,,False,27,BM-037,materials/cfd/Images/CFD/BM-037/CFD-BM-037-033-N.jpg,WM-002,materials/cfd/Images/CFD/WM-002/CFD-WM-002-007-HO.jpg,m,1
2,2,7,study,0,female,Latino,female,Black,angry,,,,,z,794,True,False,,2,,,,False,29,LF-253,materials/cfd/Images/CFD/LF-253/CFD-LF-253-003-N.jpg,BF-027,materials/cfd/Images/CFD/BF-027/CFD-BF-027-008-A.jpg,z,1
2,2,8,study,0,male,White,male,Black,neutral,,,,,m,702,True,False,,2,,,,False,31,WM-204,materials/cfd/Images/CFD/WM-204/CFD-WM-204-031-N.jpg,BM-243,materials/cfd/Images/CFD/BM-243/CFD-BM-243-218-N.jpg,m,1
2,2,9,study,0,male,Asian,female,Black,angry,,,,,m,1733,True,False,,2,,,,False,33,AM-216,materials/cfd/Images/CFD/AM-216/CFD-AM-216-114-N.jpg,BF-039,materials/cfd/Images/CFD/BF-039/CFD-BF-039-039-A.jpg,m,1
2,2,10,study,0,female,Black,male,Black,angry,,,,,z,1400,True,False,,2,,,,False,35,BF-028,materials/cfd/Images/CFD/BF-028/CFD-BF-028-001-N.jpg,BM-038,materials/cfd/Images/CFD/BM-038/CFD-BM-038-038-A.jpg,z,1
2,2,11,study,0,female,Black,female,White,happy,,,,,z,855,True,False,,2,,,,False,37,BF-015,materials/cfd/Images/CFD/BF-015/CFD-BF-015-004-N.jpg,WF-025,materials/cfd/Images/CFD/WF-025/CFD-WF-025-006-HO.jpg,z,1
2,2,12,study,0,female,Latino,female,White,neutral,,,,,z,1041,True,False,,2,,,,False,39,LF-213,materials/cfd/Images/CFD/LF-213/CFD-LF-213-079-N.jpg,WF-039,materials/cfd/Images/CFD/WF-039/CFD-WF-039-025-N.jpg,z,1
2,2,13,study,0,female,Latino,male,White,happy,,,,,z,903,True,False,,2,,,,False,41,LF-221,materials/cfd/Images/CFD/LF-221/CFD-LF-221-002-N.jpg,WM-036,materials/cfd/Images/CFD/WM-036/CFD-WM-036-034-HO.jpg,z,1
2,2,14,study,0,female,Asian,female,White,angry,,,,,z,710,True,False,,2,,,,False,43,AF-237,materials/cfd/Images/CFD/AF-237/CFD-AF-237-223-N.jpg,WF-036,materials/cfd/Images/CFD/WF-036/CFD-WF-036-015-A.jpg,z,1
2,2,15,study,0,female,Black,female,Black,happy,,,,,z,635,True,False,,2,,,,False,45,BF-030,materials/cfd/Images/CFD/BF-030/CFD-BF-030-002-N.jpg,BF-041,materials/cfd/Images/CFD/BF-041/CFD-BF-041-004-HO.jpg,z,1
2,2,16,study,0,female,White,male,Black,happy,,,,,z,893,True,False,,2,,,,False,47,WF-248,materials/cfd/Images/CFD/WF-248/CFD-WF-248-129-N.jpg,BM-029,materials/cfd/Images/CFD/BM-029/CFD-BM-029-029-HO.jpg,z,1
2,2,17,study,0,female,Black,female,White,happy,,,,,z,763,True,False,,2,,,,False,49,BF-214,materials/cfd/Images/CFD/BF-214/CFD-BF-214-308-N.jpg,WF-008,materials/cfd/Images/CFD/WF-008/CFD-WF-008-003-HO.jpg,z,1
2,2,18,study,0,female,White,female,White,angry,,,,,z,710,True,False,,2,,,,False,51,WF-223,materials/cfd/Images/CFD/WF-223/CFD-WF-223-133-N.jpg,WF-009,materials/cfd/Images/CFD/WF-009/CFD-WF-009-010-A.jpg,z,1
2,2,19,study,0,male,Black,male,White,angry,,,,,m,890,True,False,,2,,,,False,53,BM-046,materials/cfd/Images/CFD/BM-046/CFD-BM-046-006-N.jpg,WM-018,materials/cfd/Images/CFD/WM-018/CFD-WM-018-007-A.jpg,m,1
2,2,20,study,0,female,White,male,Black,angry,,,,,z,1851,True,False,,2,,,,False,55,WF-222,materials/cfd/Images/CFD/WF-222/CFD-WF-222-092-N.jpg,BM-025,materials/cfd/Images/CFD/BM-025/CFD-BM-025-045-A.jpg,z,1
2,2,21,study,0,female,Black,male,White,neutral,,,,,z,1159,True,False,,2,,,,False,57,BF-012,materials/cfd/Images/CFD/BF-012/CFD-BF-012-001-N.jpg,WM-239,materials/cfd/Images/CFD/WM-239/CFD-WM-239-128-N.jpg,z,1
2,2,22,study,0,male,Asian,female,Black,happy,,,,,m,799,True,False,,2,,,,False,59,AM-203,materials/cfd/Images/CFD/AM-203/CFD-AM-203-086-N.jpg,BF-048,materials/cfd/Images/CFD/BF-048/CFD-BF-048-005-HO.jpg,m,1
2,2,23,study,0,male,White,male,White,happy,,,,,m,1320,True,False,,2,,,,False,61,WM-208,materials/cfd/Images/CFD/WM-208/CFD-WM-208-068-N.jpg,WM-013,materials/cfd/Images/CFD/WM-013/CFD-WM-013-006-HO.jpg,m,1
2,2,24,study,0,male,Asian,male,White,angry,,,,,m,1636,True,False,,2,,,,False,63,AM-217,materials/cfd/Images/CFD/AM-217/CFD-AM-217-085-N.jpg,WM-026,materials/cfd/Images/CFD/WM-026/CFD-WM-026-019-A.jpg,m,1
2,2,25,study,0,female,Black,male,White,happy,,,,,z,1205,True,False,,2,,,,False,65,BF-011,materials/cfd/Images/CFD/BF-011/CFD-BF-011-002-N.jpg,WM-021,materials/cfd/Images/CFD/WM-021/CFD-WM-021-004-HO.jpg,z,1
2,2,26,study,0,male,Latino,female,White,neutral,,,,,m,1693,True,False,,2,,,,False,67,LM-207,materials/cfd/Images/CFD/LM-207/CFD-LM-207-004-N.jpg,WF-239,materials/cfd/Images/CFD/WF-239/CFD-WF-239-155-N.jpg,m,1
2,2,27,study,0,male,Latino,male,Black,neutral,,,,,z,1047,False,False,,2,,,,False,69,LM-226,materials/cfd/Images/CFD/LM-226/CFD-LM-226-175-N.jpg,BM-238,materials/cfd/Images/CFD/BM-238/CFD-BM-238-242-N.jpg,m,1
2,2,28,study,0,male,Black,female,White,angry,,,,,m,1236,True,False,,2,,,,False,71,BM-250,materials/cfd/Images/CFD/BM-250/CFD-BM-250-170-N.jpg,WF-012,materials/cfd/Images/CFD/WF-012/CFD-WF-012-012-A.jpg,m,1
2,2,29,study,0,female,Black,male,Black,neutral,,,,,z,825,True,False,,2,,,,False,73,BF-211,materials/cfd/Images/CFD/BF-211/CFD-BF-211-168-N.jpg,BM-003,materials/cfd/Images/CFD/BM-003/CFD-BM-003-003-N.jpg,z,1
2,2,30,study,0,male,Asian,female,White,neutral,,,,,m,909,True,False,,2,,,,False,75,AM-204,materials/cfd/Images/CFD/AM-204/CFD-AM-204-122-N.jpg,WF-244,materials/cfd/Images/CFD/WF-244/CFD-WF-244-163-N.jpg,m,1
2,2,31,study,1,male,White,male,White,angry,,,,,m,1087,True,False,,2,,,,False,78,WM-252,materials/cfd/Images/CFD/WM-252/CFD-WM-252-224-N.jpg,WM-037,materials/cfd/Images/CFD/WM-037/CFD-WM-037-060-A.jpg,m,1
2,2,32,study,1,female,Latino,male,White,angry,,,,,z,515,True,False,,2,,,,False,80,LF-204,materials/cfd/Images/CFD/LF-204/CFD-LF-204-133-N.jpg,WM-017,materials/cfd/Images/CFD/WM-017/CFD-WM-017-011-A.jpg,z,1
2,2,33,study,1,male,Asian,female,Black,happy,,,,,m,502,True,False,,2,,,,False,82,AM-230,materials/cfd/Images/CFD/AM-230/CFD-AM-230-150-N.jpg,BF-001,materials/cfd/Images/CFD/BF-001/CFD-BF-001-018-HO.jpg,m,1
2,2,34,study,1,female,Black,male,Black,angry,,,,,z,518,True,False,,2,,,,False,84,BF-031,materials/cfd/Images/CFD/BF-031/CFD-BF-031-002-N.jpg,BM-036,materials/cfd/Images/CFD/BM-036/CFD-BM-036-037-A.jpg,z,1
2,2,35,study,1,male,Asian,female,White,angry,,,,,m,574,True,False,,2,,,,False,86,AM-253,materials/cfd/Images/CFD/AM-253/CFD-AM-253-161-N.jpg,WF-037,materials/cfd/Images/CFD/WF-037/CFD-WF-037-016-A.jpg,m,1
2,2,36,study,1,female,Black,female,White,neutral,,,,,z,601,True,False,,2,,,,False,88,BF-025,materials/cfd/Images/CFD/BF-025/CFD-BF-025-002-N.jpg,WF-236,materials/cfd/Images/CFD/WF-236/CFD-WF-236-107-N.jpg,z,1
2,2,37,study,1,male,Asian,female,White,happy,,,,,m,618,True,False,,2,,,,False,90,AM-245,materials/cfd/Images/CFD/AM-245/CFD-AM-245-111-N.jpg,WF-013,materials/cfd/Images/CFD/WF-013/CFD-WF-013-006-HO.jpg,m,1
2,2,38,study,1,female,Latino,male,White,angry,,,,,m,733,False,False,,2,,,,False,92,LF-219,materials/cfd/Images/CFD/LF-219/CFD-LF-219-223-N.jpg,WM-041,materials/cfd/Images/CFD/WM-041/CFD-WM-041-009-A.jpg,z,1
2,2,39,study,1,female,Latino,female,Black,happy,,,,,z,2341,True,False,,2,,,,False,94,LF-234,materials/cfd/Images/CFD/LF-234/CFD-LF-234-139-N.jpg,BF-016,materials/cfd/Images/CFD/BF-016/CFD-BF-016-018-HO.jpg,z,1
2,2,40,study,1,male,Black,female,Black,angry,,,,,m,774,True,False,,2,,,,False,96,BM-001,materials/cfd/Images/CFD/BM-001/CFD-BM-001-014-N.jpg,BF-007,materials/cfd/Images/CFD/BF-007/CFD-BF-007-013-A.jpg,m,1
2,2,41,study,1,female,Asian,female,White,neutral,,,,,z,659,True,False,,2,,,,False,98,AF-201,materials/cfd/Images/CFD/AF-201/CFD-AF-201-060-N.jpg,WF-019,materials/cfd/Images/CFD/WF-019/CFD-WF-019-005-N.jpg,z,1
2,2,42,study,1,male,White,male,White,neutral,,,,,m,778,True,False,,2,,,,False,100,WM-020,materials/cfd/Images/CFD/WM-020/CFD-WM-020-001-N.jpg,WM-236,materials/cfd/Images/CFD/WM-236/CFD-WM-236-072-N.jpg,m,1
2,2,43,study,1,female,Black,male,White,neutral,,,,,z,972,True,False,,2,,,,False,102,BF-033,materials/cfd/Images/CFD/BF-033/CFD-BF-033-028-N.jpg,WM-203,materials/cfd/Images/CFD/WM-203/CFD-WM-203-023-N.jpg,z,1
2,2,44,study,1,male,White,male,Black,angry,,,,,m,728,True,False,,2,,,,False,104,WM-219,materials/cfd/Images/CFD/WM-219/CFD-WM-219-008-N.jpg,BM-039,materials/cfd/Images/CFD/BM-039/CFD-BM-039-037-A.jpg,m,1
2,2,45,study,1,female,White,female,Black,happy,,,,,z,1225,True,False,,2,,,,False,106,WF-233,materials/cfd/Images/CFD/WF-233/CFD-WF-233-112-N.jpg,BF-002,materials/cfd/Images/CFD/BF-002/CFD-BF-002-004-HO.jpg,z,1
2,2,46,study,1,male,Latino,male,Black,happy,,,,,m,635,True,False,,2,,,,False,108,LM-227,materials/cfd/Images/CFD/LM-227/CFD-LM-227-103-N.jpg,BM-044,materials/cfd/Images/CFD/BM-044/CFD-BM-044-037-HO.jpg,m,1
2,2,47,study,1,female,Asian,male,Black,neutral,,,,,z,768,True,False,,2,,,,False,110,AF-224,materials/cfd/Images/CFD/AF-224/CFD-AF-224-026-N.jpg,BM-231,materials/cfd/Images/CFD/BM-231/CFD-BM-231-155-N.jpg,z,1
2,2,48,study,1,female,Black,female,Black,angry,,,,,z,571,True,False,,2,,,,False,112,BF-232,materials/cfd/Images/CFD/BF-232/CFD-BF-232-187-N.jpg,BF-017,materials/cfd/Images/CFD/BF-017/CFD-BF-017-011-A.jpg,z,1
2,2,49,study,1,male,Asian,male,White,neutral,,,,,m,621,True,False,,2,,,,False,114,AM-235,materials/cfd/Images/CFD/AM-235/CFD-AM-235-241-N.jpg,WM-231,materials/cfd/Images/CFD/WM-231/CFD-WM-231-112-N.jpg,m,1
2,2,50,study,1,male,White,female,Black,happy,,,,,m,1546,True,False,,2,,,,False,116,WM-247,materials/cfd/Images/CFD/WM-247/CFD-WM-247-084-N.jpg,BF-037,materials/cfd/Images/CFD/BF-037/CFD-BF-037-026-HO.jpg,m,1
2,2,51,study,1,female,Asian,female,White,neutral,,,,,z,1446,True,False,,2,,,,False,118,AF-221,materials/cfd/Images/CFD/AF-221/CFD-AF-221-147-N.jpg,WF-202,materials/cfd/Images/CFD/WF-202/CFD-WF-202-056-N.jpg,z,1
2,2,52,study,1,male,Asian,male,Black,neutral,,,,,m,760,True,False,,2,,,,False,120,AM-218,materials/cfd/Images/CFD/AM-218/CFD-AM-218-085-N.jpg,BM-009,materials/cfd/Images/CFD/BM-009/CFD-BM-009-002-N.jpg,m,1
2,2,53,study,1,female,White,male,Black,happy,,,,,z,563,True,False,,2,,,,False,122,WF-024,materials/cfd/Images/CFD/WF-024/CFD-WF-024-003-N.jpg,BM-026,materials/cfd/Images/CFD/BM-026/CFD-BM-026-009-HO.jpg,z,1
2,2,54,study,1,male,White,female,White,neutral,,,,,m,817,True,False,,2,,,,False,124,WM-215,materials/cfd/Images/CFD/WM-215/CFD-WM-215-041-N.jpg,WF-220,materials/cfd/Images/CFD/WF-220/CFD-WF-220-101-N.jpg,m,1
2,2,55,study,1,male,Black,female,Black,happy,,,,,m,937,True,False,,2,,,,False,126,BM-215,materials/cfd/Images/CFD/BM-215/CFD-BM-215-155-N.jpg,BF-038,materials/cfd/Images/CFD/BF-038/CFD-BF-038-004-HO.jpg,m,1
2,2,56,study,1,male,Latino,female,Black,neutral,,,,,m,1355,True,False,,2,,,,False,128,LM-214,materials/cfd/Images/CFD/LM-214/CFD-LM-214-165-N.jpg,BF-229,materials/cfd/Images/CFD/BF-229/CFD-BF-229-179-N.jpg,m,1
2,2,57,study,1,male,Latino,male,White,happy,,,,,m,1035,True,False,,2,,,,False,130,LM-238,materials/cfd/Images/CFD/LM-238/CFD-LM-238-129-N.jpg,WM-025,materials/cfd/Images/CFD/WM-025/CFD-WM-025-019-HO.jpg,m,1
2,2,58,study,1,male,White,male,White,angry,,,,,m,592,True,False,,2,,,,False,132,WM-258,materials/cfd/Images/CFD/WM-258/CFD-WM-258-125-N.jpg,WM-009,materials/cfd/Images/CFD/WM-009/CFD-WM-009-009-A.jpg,m,1
2,2,59,study,1,female,White,female,Black,neutral,,,,,z,609,True,False,,2,,,,False,134,WF-226,materials/cfd/Images/CFD/WF-226/CFD-WF-226-095-N.jpg,BF-042,materials/cfd/Images/CFD/BF-042/CFD-BF-042-026-N.jpg,z,1
2,2,60,study,1,male,Black,female,White,neutral,,,,,m,1984,True,False,,2,,,,False,136,BM-015,materials/cfd/Images/CFD/BM-015/CFD-BM-015-015-N.jpg,WF-026,materials/cfd/Images/CFD/WF-026/CFD-WF-026-002-N.jpg,m,1
2,2,61,test,0,male,Asian,female,Black,happy,,,,intact,m,384,True,False,,2,,,,False,153,AM-203,materials/cfd/Images/CFD/AM-203/CFD-AM-203-086-N.jpg,BF-048,materials/cfd/Images/CFD/BF-048/CFD-BF-048-005-HO.jpg,m,1
2,2,62,test,0,female,Black,male,Black,neutral,,,,intact,m,271,True,False,,2,,,,False,155,BF-211,materials/cfd/Images/CFD/BF-211/CFD-BF-211-168-N.jpg,BM-003,materials/cfd/Images/CFD/BM-003/CFD-BM-003-003-N.jpg,m,1
2,2,63,test,0,female,Asian,female,Black,angry,,,,rearranged,z,208,True,False,,2,,,,False,157,AF-237,materials/cfd/Images/CFD/AF-237/CFD-AF-237-223-N.jpg,BF-027,materials/cfd/Images/CFD/BF-027/CFD-BF-027-008-A.jpg,z,1
2,2,64,test,0,male,Black,female,Black,happy,,,,intact,z,464,False,False,,2,,,,False,159,BM-215,materials/cfd/Images/CFD/BM-215/CFD-BM-215-155-N.jpg,BF-038,materials/cfd/Images/CFD/BF-038/CFD-BF-038-004-HO.jpg,m,1
2,2,65,test,0,female,White,male,White,happy,,,,intact,m,566,True,False,,2,,,,False,161,WF-217,materials/cfd/Images/CFD/WF-217/CFD-WF-217-085-N.jpg,WM-029,materials/cfd/Images/CFD/WM-029/CFD-WM-029-029-HO.jpg,m,1
2,2,66,test,0,male,White,male,White,neutral,,,,intact,m,276,True,False,,2,,,,False,163,WM-020,materials/cfd/Images/CFD/WM-020/CFD-WM-020-001-N.jpg,WM-236,materials/cfd/Images/CFD/WM-236/CFD-WM-236-072-N.jpg,m,1
2,2,67,test,0,female,Black,female,Black,happy,,,,rearranged,m,263,False,False,,2,,,,False,165,BF-214,materials/cfd/Images/CFD/BF-214/CFD-BF-214-308-N.jpg,BF-041,materials/cfd/Images/CFD/BF-041/CFD-BF-041-004-HO.jpg,z,1
2,2,68,test,0,male,Black,male,Black,happy,,,,rearranged,z,249,True,False,,2,,,,False,167,BM-037,materials/cfd/Images/CFD/BM-037/CFD-BM-037-033-N.jpg,BM-020,materials/cfd/Images/CFD/BM-020/CFD-BM-020-026-HO.jpg,z,1
2,2,69,test,0,male,Latino,male,Black,happy,,,,rearranged,z,202,True,False,,2,,,,False,169,LM-235,materials/cfd/Images/CFD/LM-235/CFD-LM-235-231-N.jpg,BM-044,materials/cfd/Images/CFD/BM-044/CFD-BM-044-037-HO.jpg,z,1
2,2,70,test,0,female,Latino,male,White,angry,,,,intact,m,80,True,False,,2,,,,False,171,LF-204,materials/cfd/Images/CFD/LF-204/CFD-LF-204-133-N.jpg,WM-017,materials/cfd/Images/CFD/WM-017/CFD-WM-017-011-A.jpg,m,1
2,2,71,test,0,male,Latino,male,White,happy,,,,rearranged,m,62,False,False,,2,,,,False,173,LM-227,materials/cfd/Images/CFD/LM-227/CFD-LM-227-103-N.jpg,WM-002,materials/cfd/Images/CFD/WM-002/CFD-WM-002-007-HO.jpg,z,1
2,2,72,test,0,male,White,female,White,happy,,,,rearranged,m,211,False,False,,2,,,,False,175,WM-247,materials/cfd/Images/CFD/WM-247/CFD-WM-247-084-N.jpg,WF-013,materials/cfd/Images/CFD/WF-013/CFD-WF-013-006-HO.jpg,z,1
2,2,73,test,0,male,Latino,female,White,neutral,,,,intact,z,363,False,False,,2,,,,False,177,LM-207,materials/cfd/Images/CFD/LM-207/CFD-LM-207-004-N.jpg,WF-239,materials/cfd/Images/CFD/WF-239/CFD-WF-239-155-N.jpg,m,1
2,2,74,test,0,male,Asian,female,Black,happy,,,,rearranged,z,145,True,False,,2,,,,False,179,AM-230,materials/cfd/Images/CFD/AM-230/CFD-AM-230-150-N.jpg,BF-037,materials/cfd/Images/CFD/BF-037/CFD-BF-037-026-HO.jpg,z,1
2,2,75,test,0,male,Asian,male,White,angry,,,,intact,z,395,False,False,,2,,,,False,181,AM-217,materials/cfd/Images/CFD/AM-217/CFD-AM-217-085-N.jpg,WM-026,materials/cfd/Images/CFD/WM-026/CFD-WM-026-019-A.jpg,m,1
2,2,76,test,0,male,Asian,female,White,neutral,,,,rearranged,m,238,False,False,,2,,,,False,183,AM-204,materials/cfd/Images/CFD/AM-204/CFD-AM-204-122-N.jpg,WF-026,materials/cfd/Images/CFD/WF-026/CFD-WF-026-002-N.jpg,z,1
2,2,77,test,0,female,Asian,female,White,neutral,,,,intact,m,243,True,False,,2,,,,False,185,AF-201,materials/cfd/Images/CFD/AF-201/CFD-AF-201-060-N.jpg,WF-019,materials/cfd/Images/CFD/WF-019/CFD-WF-019-005-N.jpg,m,1
2,2,78,test,0,male,White,male,White,angry,,,,intact,m,280,True,False,,2,,,,False,187,WM-258,materials/cfd/Images/CFD/WM-258/CFD-WM-258-125-N.jpg,WM-009,materials/cfd/Images/CFD/WM-009/CFD-WM-009-009-A.jpg,m,1
2,2,79,test,0,male,Black,female,Black,angry,,,,intact,z,203,False,False,,2,,,,False,189,BM-001,materials/cfd/Images/CFD/BM-001/CFD-BM-001-014-N.jpg,BF-007,materials/cfd/Images/CFD/BF-007/CFD-BF-007-013-A.jpg,m,1
2,2,80,test,0,male,Asian,male,White,neutral,,,,rearranged,z,198,True,False,,2,,,,False,191,AM-218,materials/cfd/Images/CFD/AM-218/CFD-AM-218-085-N.jpg,WM-231,materials/cfd/Images/CFD/WM-231/CFD-WM-231-112-N.jpg,z,1
2,2,81,test,0,female,Black,male,White,neutral,,,,intact,z,247,False,False,,2,,,,False,193,BF-012,materials/cfd/Images/CFD/BF-012/CFD-BF-012-001-N.jpg,WM-239,materials/cfd/Images/CFD/WM-239/CFD-WM-239-128-N.jpg,m,1
2,2,82,test,0,female,White,female,White,angry,,,,rearranged,z,209,True,False,,2,,,,False,195,WF-223,materials/cfd/Images/CFD/WF-223/CFD-WF-223-133-N.jpg,WF-036,materials/cfd/Images/CFD/WF-036/CFD-WF-036-015-A.jpg,z,1
2,2,83,test,0,male,White,male,White,angry,,,,rearranged,m,222,False,False,,2,,,,False,197,WM-219,materials/cfd/Images/CFD/WM-219/CFD-WM-219-008-N.jpg,WM-037,materials/cfd/Images/CFD/WM-037/CFD-WM-037-060-A.jpg,z,1
2,2,84,test,0,male,Asian,female,White,angry,,,,rearranged,m,228,False,False,,2,,,,False,199,AM-216,materials/cfd/Images/CFD/AM-216/CFD-AM-216-114-N.jpg,WF-012,materials/cfd/Images/CFD/WF-012/CFD-WF-012-012-A.jpg,z,1
2,2,85,test,0,male,Latino,female,White,neutral,,,,rearranged,z,218,True,False,,2,,,,False,201,LM-214,materials/cfd/Images/CFD/LM-214/CFD-LM-214-165-N.jpg,WF-244,materials/cfd/Images/CFD/WF-244/CFD-WF-244-163-N.jpg,z,1
2,2,86,test,0,male,White,male,Black,neutral,,,,rearranged,m,328,False,False,,2,,,,False,203,WM-204,materials/cfd/Images/CFD/WM-204/CFD-WM-204-031-N.jpg,BM-009,materials/cfd/Images/CFD/BM-009/CFD-BM-009-002-N.jpg,z,1
2,2,87,test,0,female,Latino,female,Black,happy,,,,intact,z,256,False,False,,2,,,,False,205,LF-234,materials/cfd/Images/CFD/LF-234/CFD-LF-234-139-N.jpg,BF-016,materials/cfd/Images/CFD/BF-016/CFD-BF-016-018-HO.jpg,m,1
2,2,88,test,0,female,Black,male,Black,neutral,,,,rearranged,m,383,False,False,,2,,,,False,207,BF-043,materials/cfd/Images/CFD/BF-043/CFD-BF-043-003-N.jpg,BM-231,materials/cfd/Images/CFD/BM-231/CFD-BM-231-155-N.jpg,z,1
2,2,89,test,0,female,Asian,male,White,neutral,,,,rearranged,z,338,True,False,,2,,,,False,209,AF-224,materials/cfd/Images/CFD/AF-224/CFD-AF-224-026-N.jpg,WM-203,materials/cfd/Images/CFD/WM-203/CFD-WM-203-023-N.jpg,z,1
2,2,90,test,0,female,Black,female,White,angry,,,,intact,m,1194,True,False,,2,,,,False,211,BF-019,materials/cfd/Images/CFD/BF-019/CFD-BF-019-001-N.jpg,WF-020,materials/cfd/Images/CFD/WF-020/CFD-WF-020-012-A.jpg,m,1
2,2,91,test,1,female,Black,female,White,happy,,,,intact,m,307,True,False,,2,,,,False,214,BF-015,materials/cfd/Images/CFD/BF-015/CFD-BF-015-004-N.jpg,WF-025,materials/cfd/Images/CFD/WF-025/CFD-WF-025-006-HO.jpg,m,1
2,2,92,test,1,female,Latino,female,White,angry,,,,rearranged,m,182,False,False,,2,,,,False,216,LF-253,materials/cfd/Images/CFD/LF-253/CFD-LF-253-003-N.jpg,WF-009,materials/cfd/Images/CFD/WF-009/CFD-WF-009-010-A.jpg,z,1
2,2,93,test,1,male,Asian,female,Black,angry,,,,rearranged,m,194,False,False,,2,,,,False,218,AM-253,materials/cfd/Images/CFD/AM-253/CFD-AM-253-161-N.jpg,BF-039,materials/cfd/Images/CFD/BF-039/CFD-BF-039-039-A.jpg,z,1
2,2,94,test,1,male,Latino,female,Black,angry,,,,intact,z,202,False,False,,2,,,,False,220,LM-218,materials/cfd/Images/CFD/LM-218/CFD-LM-218-183-N.jpg,BF-013,materials/cfd/Images/CFD/BF-013/CFD-BF-013-017-A.jpg,m,1
2,2,95,test,1,female,Black,male,Black,neutral,,,,rearranged,z,247,True,False,,2,,,,False,222,BF-033,materials/cfd/Images/CFD/BF-033/CFD-BF-033-028-N.jpg,BM-021,materials/cfd/Images/CFD/BM-021/CFD-BM-021-021-N.jpg,z,1
2,2,96,test,1,male,Asian,female,Black,happy,,,,rearranged,m,227,False,False,,2,,,,False,224,AM-245,materials/cfd/Images/CFD/AM-245/CFD-AM-245-111-N.jpg,BF-001,materials/cfd/Images/CFD/BF-001/CFD-BF-001-018-HO.jpg,z,1
2,2,97,test,1,female,Black,female,Black,neutral,,,,rearranged,m,704,False,False,,2,,,,False,226,BF-025,materials/cfd/Images/CFD/BF-025/CFD-BF-025-002-N.jpg,BF-042,materials/cfd/Images/CFD/BF-042/CFD-BF-042-026-N.jpg,z,1
2,2,98,test,1,female,Latino,female,White,neutral,,,,rearranged,z,318,True,False,,2,,,,False,228,LF-213,materials/cfd/Images/CFD/LF-213/CFD-LF-213-079-N.jpg,WF-236,materials/cfd/Images/CFD/WF-236/CFD-WF-236-107-N.jpg,z,1
2,2,99,test,1,male,White,male,White,angry,,,,rearranged,z,275,True,False,,2,,,,False,230,WM-252,materials/cfd/Images/CFD/WM-252/CFD-WM-252-224-N.jpg,WM-018,materials/cfd/Images/CFD/WM-018/CFD-WM-018-007-A.jpg,z,1
2,2,100,test,1,female,Black,female,Black,angry,,,,intact,m,248,True,False,,2,,,,False,232,BF-232,materials/cfd/Images/CFD/BF-232/CFD-BF-232-187-N.jpg,BF-017,materials/cfd/Images/CFD/BF-017/CFD-BF-017-011-A.jpg,m,1
2,2,101,test,1,female,Asian,female,White,neutral,,,,intact,z,441,False,False,,2,,,,False,234,AF-221,materials/cfd/Images/CFD/AF-221/CFD-AF-221-147-N.jpg,WF-202,materials/cfd/Images/CFD/WF-202/CFD-WF-202-056-N.jpg,m,1
2,2,102,test,1,male,White,female,White,neutral,,,,intact,m,401,True,False,,2,,,,False,236,WM-215,materials/cfd/Images/CFD/WM-215/CFD-WM-215-041-N.jpg,WF-220,materials/cfd/Images/CFD/WF-220/CFD-WF-220-101-N.jpg,m,1
2,2,103,test,1,male,Latino,male,White,happy,,,,intact,m,275,True,False,,2,,,,False,238,LM-238,materials/cfd/Images/CFD/LM-238/CFD-LM-238-129-N.jpg,WM-025,materials/cfd/Images/CFD/WM-025/CFD-WM-025-019-HO.jpg,m,1
2,2,104,test,1,female,White,male,Black,happy,,,,rearranged,m,226,False,False,,2,,,,False,240,WF-024,materials/cfd/Images/CFD/WF-024/CFD-WF-024-003-N.jpg,BM-029,materials/cfd/Images/CFD/BM-029/CFD-BM-029-029-HO.jpg,z,1
2,2,105,test,1,female,White,male,White,angry,,,,rearranged,z,234,True,False,,2,,,,False,242,WF-222,materials/cfd/Images/CFD/WF-222/CFD-WF-222-092-N.jpg,WM-041,materials/cfd/Images/CFD/WM-041/CFD-WM-041-009-A.jpg,z,1
2,2,106,test,1,male,Asian,male,Black,neutral,,,,rearranged,m,196,False,False,,2,,,,False,244,AM-235,materials/cfd/Images/CFD/AM-235/CFD-AM-235-241-N.jpg,BM-243,materials/cfd/Images/CFD/BM-243/CFD-BM-243-218-N.jpg,z,1
2,2,107,test,1,female,Black,female,Black,happy,,,,rearranged,z,244,True,False,,2,,,,False,246,BF-030,materials/cfd/Images/CFD/BF-030/CFD-BF-030-002-N.jpg,BF-002,materials/cfd/Images/CFD/BF-002/CFD-BF-002-004-HO.jpg,z,1
2,2,108,test,1,female,Latino,male,Black,angry,,,,rearranged,z,210,True,False,,2,,,,False,248,LF-219,materials/cfd/Images/CFD/LF-219/CFD-LF-219-223-N.jpg,BM-036,materials/cfd/Images/CFD/BM-036/CFD-BM-036-037-A.jpg,z,1
2,2,109,test,1,female,White,female,White,happy,,,,rearranged,z,246,True,False,,2,,,,False,250,WF-233,materials/cfd/Images/CFD/WF-233/CFD-WF-233-112-N.jpg,WF-008,materials/cfd/Images/CFD/WF-008/CFD-WF-008-003-HO.jpg,z,1
2,2,110,test,1,female,Black,male,Black,angry,,,,intact,z,207,False,False,,2,,,,False,252,BF-028,materials/cfd/Images/CFD/BF-028/CFD-BF-028-001-N.jpg,BM-038,materials/cfd/Images/CFD/BM-038/CFD-BM-038-038-A.jpg,m,1
2,2,111,test,1,male,White,male,White,happy,,,,intact,m,245,True,False,,2,,,,False,254,WM-208,materials/cfd/Images/CFD/WM-208/CFD-WM-208-068-N.jpg,WM-013,materials/cfd/Images/CFD/WM-013/CFD-WM-013-006-HO.jpg,m,1
2,2,112,test,1,female,Black,male,Black,happy,,,,rearranged,m,139,False,False,,2,,,,False,256,BF-011,materials/cfd/Images/CFD/BF-011/CFD-BF-011-002-N.jpg,BM-026,materials/cfd/Images/CFD/BM-026/CFD-BM-026-009-HO.jpg,z,1
2,2,113,test,1,female,Black,male,Black,angry,,,,rearranged,z,381,True,False,,2,,,,False,258,BF-031,materials/cfd/Images/CFD/BF-031/CFD-BF-031-002-N.jpg,BM-025,materials/cfd/Images/CFD/BM-025/CFD-BM-025-045-A.jpg,z,1
2,2,114,test,1,female,White,male,White,happy,,,,rearranged,z,237,True,False,,2,,,,False,260,WF-248,materials/cfd/Images/CFD/WF-248/CFD-WF-248-129-N.jpg,WM-021,materials/cfd/Images/CFD/WM-021/CFD-WM-021-004-HO.jpg,z,1
2,2,115,test,1,male,Black,male,Black,angry,,,,rearranged,m,281,False,False,,2,,,,False,262,BM-046,materials/cfd/Images/CFD/BM-046/CFD-BM-046-006-N.jpg,BM-039,materials/cfd/Images/CFD/BM-039/CFD-BM-039-037-A.jpg,z,1
2,2,116,test,1,male,Latino,male,Black,neutral,,,,intact,m,285,True,False,,2,,,,False,264,LM-226,materials/cfd/Images/CFD/LM-226/CFD-LM-226-175-N.jpg,BM-238,materials/cfd/Images/CFD/BM-238/CFD-BM-238-242-N.jpg,m,1
2,2,117,test,1,female,Latino,male,White,happy,,,,intact,m,323,True,False,,2,,,,False,266,LF-221,materials/cfd/Images/CFD/LF-221/CFD-LF-221-002-N.jpg,WM-036,materials/cfd/Images/CFD/WM-036/CFD-WM-036-034-HO.jpg,m,1
2,2,118,test,1,male,Black,female,White,angry,,,,rearranged,z,288,True,False,,2,,,,False,268,BM-250,materials/cfd/Images/CFD/BM-250/CFD-BM-250-170-N.jpg,WF-037,materials/cfd/Images/CFD/WF-037/CFD-WF-037-016-A.jpg,z,1
2,2,119,test,1,female,White,female,White,neutral,,,,rearranged,z,445,True,False,,2,,,,False,270,WF-226,materials/cfd/Images/CFD/WF-226/CFD-WF-226-095-N.jpg,WF-039,materials/cfd/Images/CFD/WF-039/CFD-WF-039-025-N.jpg,z,1
2,2,120,test,1,male,Black,female,Black,neutral,,,,rearranged,z,349,True,False,,2,,,,False,272,BM-015,materials/cfd/Images/CFD/BM-015/CFD-BM-015-015-N.jpg,BF-229,materials/cfd/Images/CFD/BF-229/CFD-BF-229-179-N.jpg,z,1
3,2,1,study,0,female,Latino,male,White,happy,,,,,z,1008,True,False,,1,,,,False,17,LF-213,materials/cfd/Images/CFD/LF-213/CFD-LF-213-079-N.jpg,WM-018,materials/cfd/Images/CFD/WM-018/CFD-WM-018-004-HO.jpg,z,2
3,2,2,study,0,male,Black,female,Black,angry,,,,,m,794,True,False,,1,,,,False,19,BM-247,materials/cfd/Images/CFD/BM-247/CFD-BM-247-240-N.jpg,BF-013,materials/cfd/Images/CFD/BF-013/CFD-BF-013-017-A.jpg,m,2
3,2,3,study,0,male,White,female,Black,angry,,,,,m,901,True,False,,1,,,,False,21,WM-218,materials/cfd/Images/CFD/WM-218/CFD-WM-218-074-N.jpg,BF-021,materials/cfd/Images/CFD/BF-021/CFD-BF-021-016-A.jpg,m,2
3,2,4,study,0,male,Latino,male,White,angry,,,,,m,627,True,False,,1,,,,False,23,LM-227,materials/cfd/Images/CFD/LM-227/CFD-LM-227-103-N.jpg,WM-036,materials/cfd/Images/CFD/WM-036/CFD-WM-036-018-A.jpg,m,2
3,2,5,study,0,female,Asian,female,White,neutral,,,,,z,601,True,False,,1,,,,False,25,AF-202,materials/cfd/Images/CFD/AF-202/CFD-AF-202-122-N.jpg,WF-208,materials/cfd/Images/CFD/WF-208/CFD-WF-208-068-N.jpg,z,2
3,2,6,study,0,female,White,female,Black,happy,,,,,z,1152,True,False,,1,,,,False,27,WF-243,materials/cfd/Images/CFD/WF-243/CFD-WF-243-148-N.jpg,BF-006,materials/cfd/Images/CFD/BF-006/CFD-BF-006-006-HO.jpg,z,2
3,2,7,study,0,male,Latino,female,Black,happy,,,,,m,890,True,False,,1,,,,False,29,LM-210,materials/cfd/Images/CFD/LM-210/CFD-LM-210-156-N.jpg,BF-039,materials/cfd/Images/CFD/BF-039/CFD-BF-039-033-HO.jpg,m,2
3,2,8,study,0,male,Asian,male,Black,happy,,,,,m,981,True,False,,1,,,,False,31,AM-242,materials/cfd/Images/CFD/AM-242/CFD-AM-242-176-N.jpg,BM-028,materials/cfd/Images/CFD/BM-028/CFD-BM-028-028-HO.jpg,m,2
3,2,9,study,0,male,Latino,male,Black,happy,,,,,m,641,True,False,,1,,,,False,33,LM-229,materials/cfd/Images/CFD/LM-229/CFD-LM-229-187-N.jpg,BM-036,materials/cfd/Images/CFD/BM-036/CFD-BM-036-004-HO.jpg,m,2
3,2,10,study,0,male,Asian,female,White,angry,,,,,m,791,True,False,,1,,,,False,35,AM-246,materials/cfd/Images/CFD/AM-246/CFD-AM-246-184-N.jpg,WF-033,materials/cfd/Images/CFD/WF-033/CFD-WF-033-031-A.jpg,m,2
3,2,11,study,0,male,White,female,Black,neutral,,,,,m,512,True,False,,1,,,,False,37,WM-024,materials/cfd/Images/CFD/WM-024/CFD-WM-024-015-N.jpg,BF-229,materials/cfd/Images/CFD/BF-229/CFD-BF-229-179-N.jpg,m,2
3,2,12,study,0,female,White,female,Black,neutral,,,,,z,390,True,False,,1,,,,False,39,WF-206,materials/cfd/Images/CFD/WF-206/CFD-WF-206-147-N.jpg,BF-018,materials/cfd/Images/CFD/BF-018/CFD-BF-018-039-N.jpg,z,2
3,2,13,study,0,male,Latino,male,Black,neutral,,,,,m,902,True,False,,1,,,,False,41,LM-232,materials/cfd/Images/CFD/LM-232/CFD-LM-232-204-N.jpg,BM-219,materials/cfd/Images/CFD/BM-219/CFD-BM-219-141-N.jpg,m,2
3,2,14,study,0,male,White,male,Black,happy,,,,,m,728,True,False,,1,,,,False,43,WM-258,materials/cfd/Images/CFD/WM-258/CFD-WM-258-125-N.jpg,BM-038,materials/cfd/Images/CFD/BM-038/CFD-BM-038-007-HO.jpg,m,2
3,2,15,study,0,male,Black,male,Black,angry,,,,,m,1308,True,False,,1,,,,False,45,BM-226,materials/cfd/Images/CFD/BM-226/CFD-BM-226-276-N.jpg,BM-016,materials/cfd/Images/CFD/BM-016/CFD-BM-016-042-A.jpg,m,2
3,2,16,study,0,male,Black,female,Black,neutral,,,,,m,635,True,False,,1,,,,False,47,BM-041,materials/cfd/Images/CFD/BM-041/CFD-BM-041-035-N.jpg,BF-050,materials/cfd/Images/CFD/BF-050/CFD-BF-050-003-N.jpg,m,2
3,2,17,study,0,male,Latino,female,White,neutral,,,,,m,536,True,False,,1,,,,False,49,LM-220,materials/cfd/Images/CFD/LM-220/CFD-LM-220-329-N.jpg,WF-015,materials/cfd/Images/CFD/WF-015/CFD-WF-015-006-N.jpg,m,2
3,2,18,study,0,male,White,female,Black,neutral,,,,,m,494,True,False,,1,,,,False,51,WM-214,materials/cfd/Images/CFD/WM-214/CFD-WM-214-026-N.jpg,BF-208,materials/cfd/Images/CFD/BF-208/CFD-BF-208-266-N.jpg,m,2
3,2,19,study,0,male,Latino,female,Black,angry,,,,,m,665,True,False,,1,,,,False,53,LM-238,materials/cfd/Images/CFD/LM-238/CFD-LM-238-129-N.jpg,BF-027,materials/cfd/Images/CFD/BF-027/CFD-BF-027-008-A.jpg,m,2
3,2,20,study,0,male,Asian,male,Black,angry,,,,,m,611,True,False,,1,,,,False,55,AM-223,materials/cfd/Images/CFD/AM-223/CFD-AM-223-138-N.jpg,BM-022,materials/cfd/Images/CFD/BM-022/CFD-BM-022-030-A.jpg,m,2
3,2,21,study,0,female,Asian,male,White,neutral,,,,,z,783,True,False,,1,,,,False,57,AF-232,materials/cfd/Images/CFD/AF-232/CFD-AF-232-078-N.jpg,WM-240,materials/cfd/Images/CFD/WM-240/CFD-WM-240-125-N.jpg,z,2
3,2,22,study,0,female,Black,female,White,angry,,,,,z,537,True,False,,1,,,,False,59,BF-047,materials/cfd/Images/CFD/BF-047/CFD-BF-047-003-N.jpg,WF-017,materials/cfd/Images/CFD/WF-017/CFD-WF-017-023-A.jpg,z,2
3,2,23,study,0,male,Black,female,Black,happy,,,,,m,610,True,False,,1,,,,False,61,BM-019,materials/cfd/Images/CFD/BM-019/CFD-BM-019-002-N.jpg,BF-011,materials/cfd/Images/CFD/BF-011/CFD-BF-011-004-HO.jpg,m,2
3,2,24,study,0,female,Asian,male,Black,neutral,,,,,z,1443,True,False,,1,,,,False,63,AF-213,materials/cfd/Images/CFD/AF-213/CFD-AF-213-126-N.jpg,BM-249,materials/cfd/Images/CFD/BM-249/CFD-BM-249-235-N.jpg,z,2
3,2,25,study,0,female,Asian,female,White,angry,,,,,z,1674,True,False,,1,,,,False,65,AF-256,materials/cfd/Images/CFD/AF-256/CFD-AF-256-160-N.jpg,WF-039,materials/cfd/Images/CFD/WF-039/CFD-WF-039-032-A.jpg,z,2
3,2,26,study,0,male,Asian,female,Black,angry,,,,,m,949,True,False,,1,,,,False,67,AM-245,materials/cfd/Images/CFD/AM-245/CFD-AM-245-111-N.jpg,BF-031,materials/cfd/Images/CFD/BF-031/CFD-BF-031-020-A.jpg,m,2
3,2,27,study,0,male,Latino,male,Black,neutral,,,,,m,795,True,False,,1,,,,False,69,LM-211,materials/cfd/Images/CFD/LM-211/CFD-LM-211-128-N.jpg,BM-201,materials/cfd/Images/CFD/BM-201/CFD-BM-201-077-N.jpg,m,2
3,2,28,study,0,female,Latino,male,White,angry,,,,,z,1165,True,False,,1,,,,False,71,LF-207,materials/cfd/Images/CFD/LF-207/CFD-LF-207-198-N.jpg,WM-004,materials/cfd/Images/CFD/WM-004/CFD-WM-004-011-A.jpg,z,2
3,2,29,study,0,female,Black,male,White,happy,,,,,z,1463,True,False,,1,,,,False,73,BF-213,materials/cfd/Images/CFD/BF-213/CFD-BF-213-188-N.jpg,WM-039,materials/cfd/Images/CFD/WM-039/CFD-WM-039-008-HO.jpg,z,2
3,2,30,study,0,male,White,female,Black,neutral,,,,,m,940,True,False,,1,,,,False,75,WM-239,materials/cfd/Images/CFD/WM-239/CFD-WM-239-128-N.jpg,BF-214,materials/cfd/Images/CFD/BF-214/CFD-BF-214-308-N.jpg,m,2
3,2,31,study,1,female,Black,male,White,neutral,,,,,z,1173,True,False,,1,,,,False,78,BF-049,materials/cfd/Images/CFD/BF-049/CFD-BF-049-032-N.jpg,WM-201,materials/cfd/Images/CFD/WM-201/CFD-WM-201-063-N.jpg,z,2
3,2,32,study,1,female,Asian,female,White,happy,,,,,z,812,True,False,,1,,,,False,80,AF-205,materials/cfd/Images/CFD/AF-205/CFD-AF-205-155-N.jpg,WF-031,materials/cfd/Images/CFD/WF-031/CFD-WF-031-005-HO.jpg,z,2
3,2,33,study,1,female,Black,male,Black,neutral,,,,,z,764,True,False,,1,,,,False,82,BF-243,materials/cfd/Images/CFD/BF-243/CFD-BF-243-164-N.jpg,BM-026,materials/cfd/Images/CFD/BM-026/CFD-BM-026-002-N.jpg,z,2
3,2,34,study,1,male,White,female,White,happy,,,,,m,1065,True,False,,1,,,,False,84,WM-019,materials/cfd/Images/CFD/WM-019/CFD-WM-019-003-N.jpg,WF-011,materials/cfd/Images/CFD/WF-011/CFD-WF-011-003-HO.jpg,m,2
3,2,35,study,1,female,Black,female,Black,neutral,,,,,z,1047,True,False,,1,,,,False,86,BF-234,materials/cfd/Images/CFD/BF-234/CFD-BF-234-167-N.jpg,BF-250,materials/cfd/Images/CFD/BF-250/CFD-BF-250-121-N.jpg,z,2
3,2,36,study,1,female,Latino,female,Black,angry,,,,,z,1071,True,False,,1,,,,False,88,LF-201,materials/cfd/Images/CFD/LF-201/CFD-LF-201-035-N.jpg,BF-017,materials/cfd/Images/CFD/BF-017/CFD-BF-017-011-A.jpg,z,2
3,2,37,study,1,female,White,male,White,neutral,,,,,z,656,True,False,,1,,,,False,90,WF-225,materials/cfd/Images/CFD/WF-225/CFD-WF-225-101-N.jpg,WM-026,materials/cfd/Images/CFD/WM-026/CFD-WM-026-001-N.jpg,z,2
3,2,38,study,1,female,White,female,Black,happy,,,,,z,490,True,False,,1,,,,False,92,WF-029,materials/cfd/Images/CFD/WF-029/CFD-WF-029-002-N.jpg,BF-048,materials/cfd/Images/CFD/BF-048/CFD-BF-048-005-HO.jpg,z,2
3,2,39,study,1,male,White,male,Black,happy,,,,,m,603,True,False,,1,,,,False,94,WM-245,materials/cfd/Images/CFD/WM-245/CFD-WM-245-123-N.jpg,BM-029,materials/cfd/Images/CFD/BM-029/CFD-BM-029-029-HO.jpg,m,2
3,2,40,study,1,male,Black,male,White,neutral,,,,,m,623,True,False,,1,,,,False,96,BM-017,materials/cfd/Images/CFD/BM-017/CFD-BM-017-021-N.jpg,WM-244,materials/cfd/Images/CFD/WM-244/CFD-WM-244-003-N.jpg,m,2
3,2,41,study,1,female,Black,female,White,neutral,,,,,z,553,True,False,,1,,,,False,98,BF-237,materials/cfd/Images/CFD/BF-237/CFD-BF-237-172-N.jpg,WF-013,materials/cfd/Images/CFD/WF-013/CFD-WF-013-003-N.jpg,z,2
3,2,42,study,1,male,Black,male,Black,neutral,,,,,m,1046,True,False,,1,,,,False,100,BM-240,materials/cfd/Images/CFD/BM-240/CFD-BM-240-207-N.jpg,BM-225,materials/cfd/Images/CFD/BM-225/CFD-BM-225-154-N.jpg,m,2
3,2,43,study,1,female,White,female,Black,neutral,,,,,z,1020,True,False,,1,,,,False,102,WF-235,materials/cfd/Images/CFD/WF-235/CFD-WF-235-121-N.jpg,BF-036,materials/cfd/Images/CFD/BF-036/CFD-BF-036-027-N.jpg,z,2
3,2,44,study,1,female,Black,male,Black,angry,,,,,z,656,True,False,,1,,,,False,104,BF-024,materials/cfd/Images/CFD/BF-024/CFD-BF-024-002-N.jpg,BM-040,materials/cfd/Images/CFD/BM-040/CFD-BM-040-013-A.jpg,z,2
3,2,45,study,1,female,Latino,female,White,angry,,,,,z,872,True,False,,1,,,,False,106,LF-248,materials/cfd/Images/CFD/LF-248/CFD-LF-248-160-N.jpg,WF-019,materials/cfd/Images/CFD/WF-019/CFD-WF-019-015-A.jpg,z,2
3,2,46,study,1,female,Asian,male,White,happy,,,,,z,786,True,False,,1,,,,False,108,AF-212,materials/cfd/Images/CFD/AF-212/CFD-AF-212-097-N.jpg,WM-031,materials/cfd/Images/CFD/WM-031/CFD-WM-031-004-HO.jpg,z,2
3,2,47,study,1,female,Asian,male,White,happy,,,,,z,491,True,False,,1,,,,False,110,AF-242,materials/cfd/Images/CFD/AF-242/CFD-AF-242-158-N.jpg,WM-009,materials/cfd/Images/CFD/WM-009/CFD-WM-009-004-HO.jpg,z,2
3,2,48,study,1,male,Black,male,White,angry,,,,,m,626,True,False,,1,,,,False,112,BM-200,materials/cfd/Images/CFD/BM-200/CFD-BM-200-046-N.jpg,WM-011,materials/cfd/Images/CFD/WM-011/CFD-WM-011-011-A.jpg,m,2
3,2,49,study,1,female,White,male,Black,angry,,,,,z,672,True,False,,1,,,,False,114,WF-210,materials/cfd/Images/CFD/WF-210/CFD-WF-210-086-N.jpg,BM-033,materials/cfd/Images/CFD/BM-033/CFD-BM-033-032-A.jpg,z,2
3,2,50,study,1,male,White,male,White,happy,,,,,m,928,True,False,,1,,,,False,116,WM-001,materials/cfd/Images/CFD/WM-001/CFD-WM-001-014-N.jpg,WM-040,materials/cfd/Images/CFD/WM-040/CFD-WM-040-023-HO.jpg,m,2
3,2,51,study,1,male,Black,female,Black,happy,,,,,m,1211,True,False,,1,,,,False,118,BM-004,materials/cfd/Images/CFD/BM-004/CFD-BM-004-002-N.jpg,BF-033,materials/cfd/Images/CFD/BF-033/CFD-BF-033-031-HO.jpg,m,2
3,2,52,study,1,female,Latino,female,White,angry,,,,,z,626,True,False,,1,,,,False,120,LF-214,materials/cfd/Images/CFD/LF-214/CFD-LF-214-090-N.jpg,WF-020,materials/cfd/Images/CFD/WF-020/CFD-WF-020-012-A.jpg,z,2
3,2,53,study,1,female,White,female,White,happy,,,,,z,1036,True,False,,1,,,,False,122,WF-224,materials/cfd/Images/CFD/WF-224/CFD-WF-224-099-N.jpg,WF-025,materials/cfd/Images/CFD/WF-025/CFD-WF-025-006-HO.jpg,z,2
3,2,54,study,1,female,Asian,male,White,angry,,,,,z,1262,True,False,,1,,,,False,124,AF-244,materials/cfd/Images/CFD/AF-244/CFD-AF-244-168-N.jpg,WM-002,materials/cfd/Images/CFD/WM-002/CFD-WM-002-017-A.jpg,z,2
3,2,55,study,1,female,Asian,male,Black,angry,,,,,z,1307,True,False,,1,,,,False,126,AF-203,materials/cfd/Images/CFD/AF-203/CFD-AF-203-077-N.jpg,BM-013,materials/cfd/Images/CFD/BM-013/CFD-BM-013-016-A.jpg,z,2
3,2,56,study,1,male,Latino,female,White,happy,,,,,m,1279,True,False,,1,,,,False,128,LM-250,materials/cfd/Images/CFD/LM-250/CFD-LM-250-077-N.jpg,WF-012,materials/cfd/Images/CFD/WF-012/CFD-WF-012-007-HO.jpg,m,2
3,2,57,study,1,male,Black,male,Black,neutral,,,,,m,573,True,False,,1,,,,False,130,BM-015,materials/cfd/Images/CFD/BM-015/CFD-BM-015-015-N.jpg,BM-221,materials/cfd/Images/CFD/BM-221/CFD-BM-221-198-N.jpg,m,2
3,2,58,study,1,female,Latino,male,Black,happy,,,,,z,1052,True,False,,1,,,,False,132,LF-210,materials/cfd/Images/CFD/LF-210/CFD-LF-210-220-N.jpg,BM-046,materials/cfd/Images/CFD/BM-046/CFD-BM-046-039-HO.jpg,z,2
3,2,59,study,1,female,White,female,White,happy,,,,,z,1073,True,False,,1,,,,False,134,WF-024,materials/cfd/Images/CFD/WF-024/CFD-WF-024-003-N.jpg,WF-014,materials/cfd/Images/CFD/WF-014/CFD-WF-014-004-HO.jpg,z,2
3,2,60,study,1,male,Black,male,Black,angry,,,,,m,810,True,False,,1,,,,False,136,BM-207,materials/cfd/Images/CFD/BM-207/CFD-BM-207-024-N.jpg,BM-020,materials/cfd/Images/CFD/BM-020/CFD-BM-020-037-A.jpg,m,2
3,2,61,test,0,male,Black,male,White,angry,,,,intact,z,1665,True,False,,1,,,,False,153,BM-200,materials/cfd/Images/CFD/BM-200/CFD-BM-200-046-N.jpg,WM-011,materials/cfd/Images/CFD/WM-011/CFD-WM-011-011-A.jpg,z,2
3,2,62,test,0,female,White,female,Black,neutral,,,,rearranged,m,1382,True,False,,1,,,,False,155,WF-206,materials/cfd/Images/CFD/WF-206/CFD-WF-206-147-N.jpg,BF-036,materials/cfd/Images/CFD/BF-036/CFD-BF-036-027-N.jpg,m,2
3,2,63,test,0,female,Latino,female,White,angry,,,,rearranged,m,1433,True,False,,1,,,,False,157,LF-214,materials/cfd/Images/CFD/LF-214/CFD-LF-214-090-N.jpg,WF-017,materials/cfd/Images/CFD/WF-017/CFD-WF-017-023-A.jpg,m,2
3,2,64,test,0,female,Latino,male,White,happy,,,,rearranged,z,950,False,False,,1,,,,False,159,LF-210,materials/cfd/Images/CFD/LF-210/CFD-LF-210-220-N.jpg,WM-018,materials/cfd/Images/CFD/WM-018/CFD-WM-018-004-HO.jpg,m,2
3,2,65,test,0,female,White,male,White,neutral,,,,intact,m,1449,False,False,,1,,,,False,161,WF-225,materials/cfd/Images/CFD/WF-225/CFD-WF-225-101-N.jpg,WM-026,materials/cfd/Images/CFD/WM-026/CFD-WM-026-001-N.jpg,z,2
3,2,66,test,0,male,White,female,Black,happy,,,,rearranged,z,1426,False,False,,1,,,,False,163,WM-019,materials/cfd/Images/CFD/WM-019/CFD-WM-019-003-N.jpg,BF-033,materials/cfd/Images/CFD/BF-033/CFD-BF-033-031-HO.jpg,m,2
3,2,67,test,0,female,Latino,female,Black,angry,,,,intact,m,1469,False,False,,1,,,,False,165,LF-201,materials/cfd/Images/CFD/LF-201/CFD-LF-201-035-N.jpg,BF-017,materials/cfd/Images/CFD/BF-017/CFD-BF-017-011-A.jpg,z,2
3,2,68,test,0,male,Black,male,Black,neutral,,,,rearranged,m,2812,True,False,,1,,,,False,167,BM-240,materials/cfd/Images/CFD/BM-240/CFD-BM-240-207-N.jpg,BM-219,materials/cfd/Images/CFD/BM-219/CFD-BM-219-141-N.jpg,m,2
3,2,69,test,0,male,Asian,male,Black,angry,,,,rearranged,z,1259,False,False,,1,,,,False,169,AM-223,materials/cfd/Images/CFD/AM-223/CFD-AM-223-138-N.jpg,BM-020,materials/cfd/Images/CFD/BM-020/CFD-BM-020-037-A.jpg,m,2
3,2,70,test,0,male,Black,female,Black,neutral,,,,rearranged,z,1799,False,False,,1,,,,False,171,BM-041,materials/cfd/Images/CFD/BM-041/CFD-BM-041-035-N.jpg,BF-208,materials/cfd/Images/CFD/BF-208/CFD-BF-208-266-N.jpg,m,2
3,2,71,test,0,male,Black,female,Black,happy,,,,intact,z,1494,True,False,,1,,,,False,173,BM-019,materials/cfd/Images/CFD/BM-019/CFD-BM-019-002-N.jpg,BF-011,materials/cfd/Images/CFD/BF-011/CFD-BF-011-004-HO.jpg,z,2
3,2,72,test,0,female,White,female,Black,happy,,,,rearranged,m,963,True,False,,1,,,,False,175,WF-024,materials/cfd/Images/CFD/WF-024/CFD-WF-024-003-N.jpg,BF-006,materials/cfd/Images/CFD/BF-006/CFD-BF-006-006-HO.jpg,m,2
3,2,73,test,0,male,Black,female,Black,angry,,,,rearranged,z,2027,False,False,,1,,,,False,177,BM-247,materials/cfd/Images/CFD/BM-247/CFD-BM-247-240-N.jpg,BF-027,materials/cfd/Images/CFD/BF-027/CFD-BF-027-008-A.jpg,m,2
3,2,74,test,0,female,Black,male,White,happy,,,,intact,m,1041,False,False,,1,,,,False,179,BF-213,materials/cfd/Images/CFD/BF-213/CFD-BF-213-188-N.jpg,WM-039,materials/cfd/Images/CFD/WM-039/CFD-WM-039-008-HO.jpg,z,2
3,2,75,test,0,female,Black,female,White,neutral,,,,intact,m,2898,False,False,,1,,,,False,181,BF-237,materials/cfd/Images/CFD/BF-237/CFD-BF-237-172-N.jpg,WF-013,materials/cfd/Images/CFD/WF-013/CFD-WF-013-003-N.jpg,z,2
3,2,76,test,0,female,White,male,Black,angry,,,,intact,m,1120,False,False,,1,,,,False,183,WF-210,materials/cfd/Images/CFD/WF-210/CFD-WF-210-086-N.jpg,BM-033,materials/cfd/Images/CFD/BM-033/CFD-BM-033-032-A.jpg,z,2
3,2,77,test,0,male,Latino,female,White,happy,,,,rearranged,m,1212,True,False,,1,,,,False,185,LM-210,materials/cfd/Images/CFD/LM-210/CFD-LM-210-156-N.jpg,WF-011,materials/cfd/Images/CFD/WF-011/CFD-WF-011-003-HO.jpg,m,2
3,2,78,test,0,female,Asian,male,White,happy,,,,intact,m,1905,False,False,,1,,,,False,187,AF-242,materials/cfd/Images/CFD/AF-242/CFD-AF-242-158-N.jpg,WM-009,materials/cfd/Images/CFD/WM-009/CFD-WM-009-004-HO.jpg,z,2
3,2,79,test,0,female,Black,male,Black,neutral,,,,rearranged,z,1391,False,False,,1,,,,False,189,BF-049,materials/cfd/Images/CFD/BF-049/CFD-BF-049-032-N.jpg,BM-249,materials/cfd/Images/CFD/BM-249/CFD-BM-249-235-N.jpg,m,2
3,2,80,test,0,female,Black,male,White,neutral,,,,rearranged,m,1301,True,False,,1,,,,False,191,BF-243,materials/cfd/Images/CFD/BF-243/CFD-BF-243-164-N.jpg,WM-201,materials/cfd/Images/CFD/WM-201/CFD-WM-201-063-N.jpg,m,2
3,2,81,test,0,male,Black,male,Black,neutral,,,,intact,m,1818,False,False,,1,,,,False,193,BM-015,materials/cfd/Images/CFD/BM-015/CFD-BM-015-015-N.jpg,BM-221,materials/cfd/Images/CFD/BM-221/CFD-BM-221-198-N.jpg,z,2
3,2,82,test,0,male,Asian,male,Black,happy,,,,intact,m,2059,False,False,,1,,,,False,195,AM-242,materials/cfd/Images/CFD/AM-242/CFD-AM-242-176-N.jpg,BM-028,materials/cfd/Images/CFD/BM-028/CFD-BM-028-028-HO.jpg,z,2
3,2,83,test,0,female,Asian,male,Black,happy,,,,rearranged,m,1063,True,False,,1,,,,False,197,AF-212,materials/cfd/Images/CFD/AF-212/CFD-AF-212-097-N.jpg,BM-046,materials/cfd/Images/CFD/BM-046/CFD-BM-046-039-HO.jpg,m,2
3,2,84,test,0,male,White,male,Black,happy,,,,rearranged,m,951,True,False,,1,,,,False,199,WM-001,materials/cfd/Images/CFD/WM-001/CFD-WM-001-014-N.jpg,BM-036,materials/cfd/Images/CFD/BM-036/CFD-BM-036-004-HO.jpg,m,2
3,2,85,test,0,female,Asian,male,Black,angry,,,,intact,m,1536,False,False,,1,,,,False,201,AF-203,materials/cfd/Images/CFD/AF-203/CFD-AF-203-077-N.jpg,BM-013,materials/cfd/Images/CFD/BM-013/CFD-BM-013-016-A.jpg,z,2
3,2,86,test,0,male,Latino,female,White,happy,,,,intact,m,911,False,False,,1,,,,False,203,LM-250,materials/cfd/Images/CFD/LM-250/CFD-LM-250-077-N.jpg,WF-012,materials/cfd/Images/CFD/WF-012/CFD-WF-012-007-HO.jpg,z,2
3,2,87,test,0,male,Black,male,White,angry,,,,rearranged,m,940,True,False,,1,,,,False,205,BM-207,materials/cfd/Images/CFD/BM-207/CFD-BM-207-024-N.jpg,WM-036,materials/cfd/Images/CFD/WM-036/CFD-WM-036-018-A.jpg,m,2
3,2,88,test,0,female,Asian,male,White,neutral,,,,intact,z,1816,True,False,,1,,,,False,207,AF-232,materials/cfd/Images/CFD/AF-232/CFD-AF-232-078-N.jpg,WM-240,materials/cfd/Images/CFD/WM-240/CFD-WM-240-125-N.jpg,z,2
3,2,89,test,0,male,Latino,male,White,neutral,,,,rearranged,z,816,False,False,,1,,,,False,209,LM-232,materials/cfd/Images/CFD/LM-232/CFD-LM-232-204-N.jpg,WM-244,materials/cfd/Images/CFD/WM-244/CFD-WM-244-003-N.jpg,m,2
3,2,90,test,0,female,Asian,male,Black,neutral,,,,rearranged,m,1326,True,False,,1,,,,False,211,AF-213,materials/cfd/Images/CFD/AF-213/CFD-AF-213-126-N.jpg,BM-026,materials/cfd/Images/CFD/BM-026/CFD-BM-026-002-N.jpg,m,2
3,2,91,test,1,male,Black,male,Black,neutral,,,,rearranged,z,1149,False,False,,1,,,,False,214,BM-017,materials/cfd/Images/CFD/BM-017/CFD-BM-017-021-N.jpg,BM-225,materials/cfd/Images/CFD/BM-225/CFD-BM-225-154-N.jpg,m,2
3,2,92,test,1,male,White,male,White,happy,,,,rearranged,z,982,False,False,,1,,,,False,216,WM-258,materials/cfd/Images/CFD/WM-258/CFD-WM-258-125-N.jpg,WM-040,materials/cfd/Images/CFD/WM-040/CFD-WM-040-023-HO.jpg,m,2
3,2,93,test,1,male,Latino,female,Black,angry,,,,rearranged,m,1894,True,False,,1,,,,False,218,LM-238,materials/cfd/Images/CFD/LM-238/CFD-LM-238-129-N.jpg,BF-031,materials/cfd/Images/CFD/BF-031/CFD-BF-031-020-A.jpg,m,2
3,2,94,test,1,male,Asian,female,White,angry,,,,intact,z,1957,True,False,,1,,,,False,220,AM-246,materials/cfd/Images/CFD/AM-246/CFD-AM-246-184-N.jpg,WF-033,materials/cfd/Images/CFD/WF-033/CFD-WF-033-031-A.jpg,z,2
3,2,95,test,1,male,White,male,Black,happy,,,,intact,z,1951,True,False,,1,,,,False,222,WM-245,materials/cfd/Images/CFD/WM-245/CFD-WM-245-123-N.jpg,BM-029,materials/cfd/Images/CFD/BM-029/CFD-BM-029-029-HO.jpg,z,2
3,2,96,test,1,male,Latino,male,Black,angry,,,,rearranged,z,1426,False,False,,1,,,,False,224,LM-227,materials/cfd/Images/CFD/LM-227/CFD-LM-227-103-N.jpg,BM-022,materials/cfd/Images/CFD/BM-022/CFD-BM-022-030-A.jpg,m,2
3,2,97,test,1,male,Black,female,Black,happy,,,,rearranged,z,1535,False,False,,1,,,,False,226,BM-004,materials/cfd/Images/CFD/BM-004/CFD-BM-004-002-N.jpg,BF-039,materials/cfd/Images/CFD/BF-039/CFD-BF-039-033-HO.jpg,m,2
3,2,98,test,1,female,White,female,White,happy,,,,rearranged,m,1303,True,False,,1,,,,False,228,WF-243,materials/cfd/Images/CFD/WF-243/CFD-WF-243-148-N.jpg,WF-025,materials/cfd/Images/CFD/WF-025/CFD-WF-025-006-HO.jpg,m,2
3,2,99,test,1,female,Black,female,White,angry,,,,rearranged,m,2544,True,False,,1,,,,False,230,BF-047,materials/cfd/Images/CFD/BF-047/CFD-BF-047-003-N.jpg,WF-019,materials/cfd/Images/CFD/WF-019/CFD-WF-019-015-A.jpg,m,2
3,2,100,test,1,male,Asian,female,Black,angry,,,,rearranged,m,896,True,False,,1,,,,False,232,AM-245,materials/cfd/Images/CFD/AM-245/CFD-AM-245-111-N.jpg,BF-013,materials/cfd/Images/CFD/BF-013/CFD-BF-013-017-A.jpg,m,2
3,2,101,test,1,female,Asian,female,White,happy,,,,intact,z,1183,True,False,,1,,,,False,234,AF-205,materials/cfd/Images/CFD/AF-205/CFD-AF-205-155-N.jpg,WF-031,materials/cfd/Images/CFD/WF-031/CFD-WF-031-005-HO.jpg,z,2
3,2,102,test,1,male,White,female,Black,neutral,,,,rearranged,m,969,True,False,,1,,,,False,236,WM-239,materials/cfd/Images/CFD/WM-239/CFD-WM-239-128-N.jpg,BF-050,materials/cfd/Images/CFD/BF-050/CFD-BF-050-003-N.jpg,m,2
3,2,103,test,1,female,White,female,Black,neutral,,,,rearranged,m,886,True,False,,1,,,,False,238,WF-235,materials/cfd/Images/CFD/WF-235/CFD-WF-235-121-N.jpg,BF-250,materials/cfd/Images/CFD/BF-250/CFD-BF-250-121-N.jpg,m,2
3,2,104,test,1,female,Latino,male,White,angry,,,,rearranged,m,1209,True,False,,1,,,,False,240,LF-207,materials/cfd/Images/CFD/LF-207/CFD-LF-207-198-N.jpg,WM-002,materials/cfd/Images/CFD/WM-002/CFD-WM-002-017-A.jpg,m,2
3,2,105,test,1,female,Black,female,Black,neutral,,,,rearranged,m,2644,True,False,,1,,,,False,242,BF-234,materials/cfd/Images/CFD/BF-234/CFD-BF-234-167-N.jpg,BF-018,materials/cfd/Images/CFD/BF-018/CFD-BF-018-039-N.jpg,m,2
3,2,106,test,1,female,Asian,male,Black,angry,,,,rearranged,m,1409,True,False,,1,,,,False,244,AF-244,materials/cfd/Images/CFD/AF-244/CFD-AF-244-168-N.jpg,BM-040,materials/cfd/Images/CFD/BM-040/CFD-BM-040-013-A.jpg,m,2
3,2,107,test,1,female,Asian,female,White,angry,,,,intact,m,662,False,False,,1,,,,False,246,AF-256,materials/cfd/Images/CFD/AF-256/CFD-AF-256-160-N.jpg,WF-039,materials/cfd/Images/CFD/WF-039/CFD-WF-039-032-A.jpg,z,2
3,2,108,test,1,male,Latino,male,Black,neutral,,,,intact,z,1270,True,False,,1,,,,False,248,LM-211,materials/cfd/Images/CFD/LM-211/CFD-LM-211-128-N.jpg,BM-201,materials/cfd/Images/CFD/BM-201/CFD-BM-201-077-N.jpg,z,2
3,2,109,test,1,male,White,female,Black,neutral,,,,rearranged,m,1152,True,False,,1,,,,False,250,WM-214,materials/cfd/Images/CFD/WM-214/CFD-WM-214-026-N.jpg,BF-214,materials/cfd/Images/CFD/BF-214/CFD-BF-214-308-N.jpg,m,2
3,2,110,test,1,female,White,female,White,happy,,,,rearranged,m,1384,True,False,,1,,,,False,252,WF-224,materials/cfd/Images/CFD/WF-224/CFD-WF-224-099-N.jpg,WF-014,materials/cfd/Images/CFD/WF-014/CFD-WF-014-004-HO.jpg,m,2
3,2,111,test,1,female,Latino,female,White,angry,,,,rearranged,m,2086,True,False,,1,,,,False,254,LF-248,materials/cfd/Images/CFD/LF-248/CFD-LF-248-160-N.jpg,WF-020,materials/cfd/Images/CFD/WF-020/CFD-WF-020-012-A.jpg,m,2
3,2,112,test,1,male,Latino,female,White,neutral,,,,intact,m,1030,False,False,,1,,,,False,256,LM-220,materials/cfd/Images/CFD/LM-220/CFD-LM-220-329-N.jpg,WF-015,materials/cfd/Images/CFD/WF-015/CFD-WF-015-006-N.jpg,z,2
3,2,113,test,1,female,Black,male,White,angry,,,,rearranged,m,1462,True,False,,1,,,,False,258,BF-024,materials/cfd/Images/CFD/BF-024/CFD-BF-024-002-N.jpg,WM-004,materials/cfd/Images/CFD/WM-004/CFD-WM-004-011-A.jpg,m,2
3,2,114,test,1,female,Asian,female,White,neutral,,,,intact,m,2551,False,False,,1,,,,False,260,AF-202,materials/cfd/Images/CFD/AF-202/CFD-AF-202-122-N.jpg,WF-208,materials/cfd/Images/CFD/WF-208/CFD-WF-208-068-N.jpg,z,2
3,2,115,test,1,male,Latino,male,Black,happy,,,,rearranged,z,1411,False,False,,1,,,,False,262,LM-229,materials/cfd/Images/CFD/LM-229/CFD-LM-229-187-N.jpg,BM-038,materials/cfd/Images/CFD/BM-038/CFD-BM-038-007-HO.jpg,m,2
3,2,116,test,1,male,White,female,Black,angry,,,,intact,z,2043,True,False,,1,,,,False,264,WM-218,materials/cfd/Images/CFD/WM-218/CFD-WM-218-074-N.jpg,BF-021,materials/cfd/Images/CFD/BF-021/CFD-BF-021-016-A.jpg,z,2
3,2,117,test,1,male,White,female,Black,neutral,,,,intact,m,1286,False,False,,1,,,,False,266,WM-024,materials/cfd/Images/CFD/WM-024/CFD-WM-024-015-N.jpg,BF-229,materials/cfd/Images/CFD/BF-229/CFD-BF-229-179-N.jpg,z,2
3,2,118,test,1,female,Latino,male,White,happy,,,,rearranged,m,1374,True,False,,1,,,,False,268,LF-213,materials/cfd/Images/CFD/LF-213/CFD-LF-213-079-N.jpg,WM-031,materials/cfd/Images/CFD/WM-031/CFD-WM-031-004-HO.jpg,m,2
3,2,119,test,1,female,White,female,Black,happy,,,,intact,z,863,True,False,,1,,,,False,270,WF-029,materials/cfd/Images/CFD/WF-029/CFD-WF-029-002-N.jpg,BF-048,materials/cfd/Images/CFD/BF-048/CFD-BF-048-005-HO.jpg,z,2
3,2,120,test,1,male,Black,male,Black,angry,,,,intact,z,972,True,False,,1,,,,False,272,BM-226,materials/cfd/Images/CFD/BM-226/CFD-BM-226-276-N.jpg,BM-016,materials/cfd/Images/CFD/BM-016/CFD-BM-016-042-A.jpg,z,2
4,2,1,study,0,male,Asian,female,Black,angry,,,,,m,706,True,False,,2,,,,False,17,AM-229,materials/cfd/Images/CFD/AM-229/CFD-AM-229-224-N.jpg,BF-038,materials/cfd/Images/CFD/BF-038/CFD-BF-038-029-A.jpg,m,1.125
4,2,2,study,0,female,Asian,male,White,happy,,,,,z,850,True,False,,2,,,,False,19,AF-240,materials/cfd/Images/CFD/AF-240/CFD-AF-240-206-N.jpg,WM-023,materials/cfd/Images/CFD/WM-023/CFD-WM-023-004-HO.jpg,z,1.125
4,2,3,study,0,female,Latino,female,Black,angry,,,,,z,903,True,False,,2,,,,False,21,LF-244,materials/cfd/Images/CFD/LF-244/CFD-LF-244-096-N.jpg,BF-050,materials/cfd/Images/CFD/BF-050/CFD-BF-050-012-A.jpg,z,1.125
4,2,4,study,0,male,Latino,female,Black,happy,,,,,m,807,True,False,,2,,,,False,23,LM-202,materials/cfd/Images/CFD/LM-202/CFD-LM-202-072-N.jpg,BF-011,materials/cfd/Images/CFD/BF-011/CFD-BF-011-004-HO.jpg,m,1.125
4,2,5,study,0,male,Asian,male,White,happy,,,,,m,542,True,False,,2,,,,False,25,AM-236,materials/cfd/Images/CFD/AM-236/CFD-AM-236-090-N.jpg,WM-011,materials/cfd/Images/CFD/WM-011/CFD-WM-011-003-HO.jpg,m,1.125
4,2,6,study,0,female,Latino,male,Black,neutral,,,,,z,567,True,False,,2,,,,False,27,LF-222,materials/cfd/Images/CFD/LF-222/CFD-LF-222-147-N.jpg,BM-212,materials/cfd/Images/CFD/BM-212/CFD-BM-212-117-N.jpg,z,1.125
4,2,7,study,0,male,Asian,female,Black,neutral,,,,,z,1803,False,False,,2,,,,False,29,AM-244,materials/cfd/Images/CFD/AM-244/CFD-AM-244-222-N.jpg,BF-213,materials/cfd/Images/CFD/BF-213/CFD-BF-213-188-N.jpg,m,1.125
4,2,8,study,0,male,Latino,male,Black,neutral,,,,,m,540,True,False,,2,,,,False,31,LM-209,materials/cfd/Images/CFD/LM-209/CFD-LM-209-111-N.jpg,BM-009,materials/cfd/Images/CFD/BM-009/CFD-BM-009-002-N.jpg,m,1.125
4,2,9,study,0,female,Black,female,Black,angry,,,,,z,840,True,False,,2,,,,False,33,BF-209,materials/cfd/Images/CFD/BF-209/CFD-BF-209-172-N.jpg,BF-018,materials/cfd/Images/CFD/BF-018/CFD-BF-018-019-A.jpg,z,1.125
4,2,10,study,0,male,Asian,male,White,angry,,,,,m,697,True,False,,2,,,,False,35,AM-253,materials/cfd/Images/CFD/AM-253/CFD-AM-253-161-N.jpg,WM-029,materials/cfd/Images/CFD/WM-029/CFD-WM-029-014-A.jpg,m,1.125
4,2,11,study,0,male,Black,female,White,neutral,,,,,m,631,True,False,,2,,,,False,37,BM-210,materials/cfd/Images/CFD/BM-210/CFD-BM-210-148-N.jpg,WF-203,materials/cfd/Images/CFD/WF-203/CFD-WF-203-229-N.jpg,m,1.125
4,2,12,study,0,male,Latino,male,White,happy,,,,,m,794,True,False,,2,,,,False,39,LM-250,materials/cfd/Images/CFD/LM-250/CFD-LM-250-077-N.jpg,WM-014,materials/cfd/Images/CFD/WM-014/CFD-WM-014-004-HO.jpg,m,1.125
4,2,13,study,0,female,White,female,Black,neutral,,,,,z,775,True,False,,2,,,,False,41,WF-018,materials/cfd/Images/CFD/WF-018/CFD-WF-018-017-N.jpg,BF-245,materials/cfd/Images/CFD/BF-245/CFD-BF-245-178-N.jpg,z,1.125
4,2,14,study,0,female,Black,male,Black,neutral,,,,,z,1069,True,False,,2,,,,False,43,BF-034,materials/cfd/Images/CFD/BF-034/CFD-BF-034-002-N.jpg,BM-241,materials/cfd/Images/CFD/BM-241/CFD-BM-241-235-N.jpg,z,1.125
4,2,15,study,0,male,Black,male,Black,angry,,,,,m,832,True,False,,2,,,,False,45,BM-217,materials/cfd/Images/CFD/BM-217/CFD-BM-217-082-N.jpg,BM-022,materials/cfd/Images/CFD/BM-022/CFD-BM-022-030-A.jpg,m,1.125
4,2,16,study,0,female,White,male,White,happy,,,,,z,804,True,False,,2,,,,False,47,WF-033,materials/cfd/Images/CFD/WF-033/CFD-WF-033-002-N.jpg,WM-001,materials/cfd/Images/CFD/WM-001/CFD-WM-001-011-HO.jpg,z,1.125
4,2,17,study,0,male,Black,male,Black,neutral,,,,,m,874,True,False,,2,,,,False,49,BM-201,materials/cfd/Images/CFD/BM-201/CFD-BM-201-077-N.jpg,BM-221,materials/cfd/Images/CFD/BM-221/CFD-BM-221-198-N.jpg,m,1.125
4,2,18,study,0,male,Black,male,White,angry,,,,,m,792,True,False,,2,,,,False,51,BM-044,materials/cfd/Images/CFD/BM-044/CFD-BM-044-001-N.jpg,WM-016,materials/cfd/Images/CFD/WM-016/CFD-WM-016-008-A.jpg,m,1.125
4,2,19,study,0,male,Black,male,Black,angry,,,,,m,802,True,False,,2,,,,False,53,BM-003,materials/cfd/Images/CFD/BM-003/CFD-BM-003-003-N.jpg,BM-028,materials/cfd/Images/CFD/BM-028/CFD-BM-028-012-A.jpg,m,1.125
4,2,20,study,0,female,Black,male,White,neutral,,,,,z,964,True,False,,2,,,,False,55,BF-226,materials/cfd/Images/CFD/BF-226/CFD-BF-226-119-N.jpg,WM-211,materials/cfd/Images/CFD/WM-211/CFD-WM-211-054-N.jpg,z,1.125
4,2,21,study,0,male,Asian,male,Black,angry,,,,,m,749,True,False,,2,,,,False,57,AM-201,materials/cfd/Images/CFD/AM-201/CFD-AM-201-076-N.jpg,BM-043,materials/cfd/Images/CFD/BM-043/CFD-BM-043-014-A.jpg,m,1.125
4,2,22,study,0,female,Asian,female,White,happy,,,,,z,850,True,False,,2,,,,False,59,AF-219,materials/cfd/Images/CFD/AF-219/CFD-AF-219-106-N.jpg,WF-024,materials/cfd/Images/CFD/WF-024/CFD-WF-024-006-HO.jpg,z,1.125
4,2,23,study,0,female,Latino,male,Black,angry,,,,,z,873,True,False,,2,,,,False,61,LF-236,materials/cfd/Images/CFD/LF-236/CFD-LF-236-221-N.jpg,BM-033,materials/cfd/Images/CFD/BM-033/CFD-BM-033-032-A.jpg,z,1.125
4,2,24,study,0,male,Black,female,Black,neutral,,,,,m,593,True,False,,2,,,,False,63,BM-036,materials/cfd/Images/CFD/BM-036/CFD-BM-036-003-N.jpg,BF-221,materials/cfd/Images/CFD/BF-221/CFD-BF-221-223-N.jpg,m,1.125
4,2,25,study,0,female,Asian,female,Black,happy,,,,,z,553,True,False,,2,,,,False,65,AF-200,materials/cfd/Images/CFD/AF-200/CFD-AF-200-228-N.jpg,BF-040,materials/cfd/Images/CFD/BF-040/CFD-BF-040-043-HO.jpg,z,1.125
4,2,26,study,0,female,Asian,female,Black,happy,,,,,z,875,True,False,,2,,,,False,67,AF-221,materials/cfd/Images/CFD/AF-221/CFD-AF-221-147-N.jpg,BF-044,materials/cfd/Images/CFD/BF-044/CFD-BF-044-007-HO.jpg,z,1.125
4,2,27,study,0,male,Latino,female,White,happy,,,,,m,630,True,False,,2,,,,False,69,LM-207,materials/cfd/Images/CFD/LM-207/CFD-LM-207-004-N.jpg,WF-025,materials/cfd/Images/CFD/WF-025/CFD-WF-025-006-HO.jpg,m,1.125
4,2,28,study,0,female,Latino,female,White,neutral,,,,,z,879,True,False,,2,,,,False,71,LF-232,materials/cfd/Images/CFD/LF-232/CFD-LF-232-199-N.jpg,WF-008,materials/cfd/Images/CFD/WF-008/CFD-WF-008-002-N.jpg,z,1.125
4,2,29,study,0,female,Latino,male,Black,angry,,,,,z,585,True,False,,2,,,,False,73,LF-211,materials/cfd/Images/CFD/LF-211/CFD-LF-211-003-N.jpg,BM-034,materials/cfd/Images/CFD/BM-034/CFD-BM-034-040-A.jpg,z,1.125
4,2,30,study,0,male,White,male,Black,neutral,,,,,m,592,True,False,,2,,,,False,75,WM-255,materials/cfd/Images/CFD/WM-255/CFD-WM-255-219-N.jpg,BM-251,materials/cfd/Images/CFD/BM-251/CFD-BM-251-013-N.jpg,m,1.125
4,2,31,study,1,male,White,male,Black,happy,,,,,m,677,True,False,,2,,,,False,78,WM-213,materials/cfd/Images/CFD/WM-213/CFD-WM-213-076-N.jpg,BM-016,materials/cfd/Images/CFD/BM-016/CFD-BM-016-040-HO.jpg,m,1.125
4,2,32,study,1,male,White,female,White,happy,,,,,m,750,True,False,,2,,,,False,80,WM-236,materials/cfd/Images/CFD/WM-236/CFD-WM-236-072-N.jpg,WF-016,materials/cfd/Images/CFD/WF-016/CFD-WF-016-003-HO.jpg,m,1.125
4,2,33,study,1,male,Black,male,White,neutral,,,,,m,771,True,False,,2,,,,False,82,BM-031,materials/cfd/Images/CFD/BM-031/CFD-BM-031-003-N.jpg,WM-037,materials/cfd/Images/CFD/WM-037/CFD-WM-037-025-N.jpg,m,1.125
4,2,34,study,1,male,White,female,White,neutral,,,,,m,661,True,False,,2,,,,False,84,WM-245,materials/cfd/Images/CFD/WM-245/CFD-WM-245-123-N.jpg,WF-217,materials/cfd/Images/CFD/WF-217/CFD-WF-217-085-N.jpg,m,1.125
4,2,35,study,1,female,White,male,Black,neutral,,,,,m,793,False,False,,2,,,,False,86,WF-242,materials/cfd/Images/CFD/WF-242/CFD-WF-242-001-N.jpg,BM-029,materials/cfd/Images/CFD/BM-029/CFD-BM-029-024-N.jpg,z,1.125
4,2,36,study,1,male,Asian,female,White,angry,,,,,m,886,True,False,,2,,,,False,88,AM-238,materials/cfd/Images/CFD/AM-238/CFD-AM-238-269-N.jpg,WF-038,materials/cfd/Images/CFD/WF-038/CFD-WF-038-030-A.jpg,m,1.125
4,2,37,study,1,male,White,female,White,happy,,,,,m,767,True,False,,2,,,,False,90,WM-032,materials/cfd/Images/CFD/WM-032/CFD-WM-032-001-N.jpg,WF-014,materials/cfd/Images/CFD/WF-014/CFD-WF-014-004-HO.jpg,m,1.125
4,2,38,study,1,male,White,female,White,angry,,,,,m,819,True,False,,2,,,,False,92,WM-021,materials/cfd/Images/CFD/WM-021/CFD-WM-021-001-N.jpg,WF-026,materials/cfd/Images/CFD/WF-026/CFD-WF-026-008-A.jpg,m,1.125
4,2,39,study,1,female,White,male,Black,happy,,,,,z,615,True,False,,2,,,,False,94,WF-214,materials/cfd/Images/CFD/WF-214/CFD-WF-214-122-N.jpg,BM-020,materials/cfd/Images/CFD/BM-020/CFD-BM-020-026-HO.jpg,z,1.125
4,2,40,study,1,male,Black,female,Black,neutral,,,,,m,768,True,False,,2,,,,False,96,BM-244,materials/cfd/Images/CFD/BM-244/CFD-BM-244-197-N.jpg,BF-016,materials/cfd/Images/CFD/BF-016/CFD-BF-016-017-N.jpg,m,1.125
4,2,41,study,1,male,Black,male,White,happy,,,,,m,833,True,False,,2,,,,False,98,BM-041,materials/cfd/Images/CFD/BM-041/CFD-BM-041-035-N.jpg,WM-002,materials/cfd/Images/CFD/WM-002/CFD-WM-002-007-HO.jpg,m,1.125
4,2,42,study,1,female,Asian,male,White,happy,,,,,z,754,True,False,,2,,,,False,100,AF-231,materials/cfd/Images/CFD/AF-231/CFD-AF-231-357-N.jpg,WM-040,materials/cfd/Images/CFD/WM-040/CFD-WM-040-023-HO.jpg,z,1.125
4,2,43,study,1,male,White,male,White,happy,,,,,z,836,False,False,,2,,,,False,102,WM-222,materials/cfd/Images/CFD/WM-222/CFD-WM-222-057-N.jpg,WM-003,materials/cfd/Images/CFD/WM-003/CFD-WM-003-003-HO.jpg,m,1.125
4,2,44,study,1,male,Black,female,White,happy,,,,,m,1191,True,False,,2,,,,False,104,BM-004,materials/cfd/Images/CFD/BM-004/CFD-BM-004-002-N.jpg,WF-001,materials/cfd/Images/CFD/WF-001/CFD-WF-001-009-HO.jpg,m,1.125
4,2,45,study,1,female,White,female,Black,happy,,,,,z,924,True,False,,2,,,,False,106,WF-218,materials/cfd/Images/CFD/WF-218/CFD-WF-218-087-N.jpg,BF-009,materials/cfd/Images/CFD/BF-009/CFD-BF-009-006-HO.jpg,z,1.125
4,2,46,study,1,male,Asian,male,Black,neutral,,,,,m,625,True,False,,2,,,,False,108,AM-225,materials/cfd/Images/CFD/AM-225/CFD-AM-225-102-N.jpg,BM-030,materials/cfd/Images/CFD/BM-030/CFD-BM-030-003-N.jpg,m,1.125
4,2,47,study,1,male,Latino,female,White,angry,,,,,m,650,True,False,,2,,,,False,110,LM-232,materials/cfd/Images/CFD/LM-232/CFD-LM-232-204-N.jpg,WF-020,materials/cfd/Images/CFD/WF-020/CFD-WF-020-012-A.jpg,m,1.125
4,2,48,study,1,female,Black,male,Black,happy,,,,,z,838,True,False,,2,,,,False,112,BF-200,materials/cfd/Images/CFD/BF-200/CFD-BF-200-080-N.jpg,BM-002,materials/cfd/Images/CFD/BM-002/CFD-BM-002-007-HO.jpg,z,1.125
4,2,49,study,1,female,Black,male,White,angry,,,,,z,869,True,False,,2,,,,False,114,BF-248,materials/cfd/Images/CFD/BF-248/CFD-BF-248-149-N.jpg,WM-041,materials/cfd/Images/CFD/WM-041/CFD-WM-041-009-A.jpg,z,1.125
4,2,50,study,1,female,Black,female,White,angry,,,,,z,1072,True,False,,2,,,,False,116,BF-254,materials/cfd/Images/CFD/BF-254/CFD-BF-254-201-N.jpg,WF-027,materials/cfd/Images/CFD/WF-027/CFD-WF-027-014-A.jpg,z,1.125
4,2,51,study,1,female,White,male,Black,angry,,,,,z,1165,True,False,,2,,,,False,118,WF-017,materials/cfd/Images/CFD/WF-017/CFD-WF-017-003-N.jpg,BM-019,materials/cfd/Images/CFD/BM-019/CFD-BM-019-045-A.jpg,z,1.125
4,2,52,study,1,female,Asian,female,Black,angry,,,,,z,953,True,False,,2,,,,False,120,AF-212,materials/cfd/Images/CFD/AF-212/CFD-AF-212-097-N.jpg,BF-017,materials/cfd/Images/CFD/BF-017/CFD-BF-017-011-A.jpg,z,1.125
4,2,53,study,1,female,White,female,White,neutral,,,,,z,884,True,False,,2,,,,False,122,WF-030,materials/cfd/Images/CFD/WF-030/CFD-WF-030-002-N.jpg,WF-225,materials/cfd/Images/CFD/WF-225/CFD-WF-225-101-N.jpg,z,1.125
4,2,54,study,1,male,White,female,Black,angry,,,,,m,539,True,False,,2,,,,False,124,WM-033,materials/cfd/Images/CFD/WM-033/CFD-WM-033-025-N.jpg,BF-024,materials/cfd/Images/CFD/BF-024/CFD-BF-024-024-A.jpg,m,1.125
4,2,55,study,1,female,White,male,White,angry,,,,,z,680,True,False,,2,,,,False,126,WF-236,materials/cfd/Images/CFD/WF-236/CFD-WF-236-107-N.jpg,WM-026,materials/cfd/Images/CFD/WM-026/CFD-WM-026-019-A.jpg,z,1.125
4,2,56,study,1,female,Black,female,Black,happy,,,,,m,664,False,False,,2,,,,False,128,BF-031,materials/cfd/Images/CFD/BF-031/CFD-BF-031-002-N.jpg,BF-039,materials/cfd/Images/CFD/BF-039/CFD-BF-039-033-HO.jpg,z,1.125
4,2,57,study,1,female,Latino,male,White,neutral,,,,,z,806,True,False,,2,,,,False,130,LF-235,materials/cfd/Images/CFD/LF-235/CFD-LF-235-219-N.jpg,WM-013,materials/cfd/Images/CFD/WM-013/CFD-WM-013-001-N.jpg,z,1.125
4,2,58,study,1,female,White,female,Black,neutral,,,,,z,1569,True,False,,2,,,,False,132,WF-034,materials/cfd/Images/CFD/WF-034/CFD-WF-034-006-N.jpg,BF-023,materials/cfd/Images/CFD/BF-023/CFD-BF-023-010-N.jpg,z,1.125
4,2,59,study,1,female,White,female,Black,neutral,,,,,z,725,True,False,,2,,,,False,134,WF-213,materials/cfd/Images/CFD/WF-213/CFD-WF-213-031-N.jpg,BF-029,materials/cfd/Images/CFD/BF-029/CFD-BF-029-031-N.jpg,z,1.125
4,2,60,study,1,female,Black,female,White,angry,,,,,z,1230,True,False,,2,,,,False,136,BF-012,materials/cfd/Images/CFD/BF-012/CFD-BF-012-001-N.jpg,WF-036,materials/cfd/Images/CFD/WF-036/CFD-WF-036-015-A.jpg,z,1.125
4,2,61,test,0,male,White,female,Black,angry,,,,intact,m,1271,True,False,,2,,,,False,153,WM-033,materials/cfd/Images/CFD/WM-033/CFD-WM-033-025-N.jpg,BF-024,materials/cfd/Images/CFD/BF-024/CFD-BF-024-024-A.jpg,m,1.125
4,2,62,test,0,female,Black,female,Black,angry,,,,rearranged,m,839,False,False,,2,,,,False,155,BF-012,materials/cfd/Images/CFD/BF-012/CFD-BF-012-001-N.jpg,BF-018,materials/cfd/Images/CFD/BF-018/CFD-BF-018-019-A.jpg,z,1.125
4,2,63,test,0,male,Black,female,White,happy,,,,rearranged,z,1097,True,False,,2,,,,False,157,BM-004,materials/cfd/Images/CFD/BM-004/CFD-BM-004-002-N.jpg,WF-025,materials/cfd/Images/CFD/WF-025/CFD-WF-025-006-HO.jpg,z,1.125
4,2,64,test,0,male,Black,male,Black,neutral,,,,intact,m,896,True,False,,2,,,,False,159,BM-201,materials/cfd/Images/CFD/BM-201/CFD-BM-201-077-N.jpg,BM-221,materials/cfd/Images/CFD/BM-221/CFD-BM-221-198-N.jpg,m,1.125
4,2,65,test,0,female,White,male,White,happy,,,,rearranged,m,857,False,False,,2,,,,False,161,WF-214,materials/cfd/Images/CFD/WF-214/CFD-WF-214-122-N.jpg,WM-023,materials/cfd/Images/CFD/WM-023/CFD-WM-023-004-HO.jpg,z,1.125
4,2,66,test,0,female,Black,male,Black,happy,,,,intact,z,1233,False,False,,2,,,,False,163,BF-200,materials/cfd/Images/CFD/BF-200/CFD-BF-200-080-N.jpg,BM-002,materials/cfd/Images/CFD/BM-002/CFD-BM-002-007-HO.jpg,m,1.125
4,2,67,test,0,female,Black,male,White,neutral,,,,rearranged,z,870,True,False,,2,,,,False,165,BF-034,materials/cfd/Images/CFD/BF-034/CFD-BF-034-002-N.jpg,WM-211,materials/cfd/Images/CFD/WM-211/CFD-WM-211-054-N.jpg,z,1.125
4,2,68,test,0,male,Black,female,Black,neutral,,,,rearranged,m,1094,False,False,,2,,,,False,167,BM-036,materials/cfd/Images/CFD/BM-036/CFD-BM-036-003-N.jpg,BF-016,materials/cfd/Images/CFD/BF-016/CFD-BF-016-017-N.jpg,z,1.125
4,2,69,test,0,male,Latino,male,Black,neutral,,,,rearranged,m,682,False,False,,2,,,,False,169,LM-209,materials/cfd/Images/CFD/LM-209/CFD-LM-209-111-N.jpg,BM-030,materials/cfd/Images/CFD/BM-030/CFD-BM-030-003-N.jpg,z,1.125
4,2,70,test,0,female,White,female,Black,neutral,,,,rearranged,z,644,True,False,,2,,,,False,171,WF-034,materials/cfd/Images/CFD/WF-034/CFD-WF-034-006-N.jpg,BF-029,materials/cfd/Images/CFD/BF-029/CFD-BF-029-031-N.jpg,z,1.125
4,2,71,test,0,male,Asian,male,White,happy,,,,rearranged,m,1542,False,False,,2,,,,False,173,AM-236,materials/cfd/Images/CFD/AM-236/CFD-AM-236-090-N.jpg,WM-003,materials/cfd/Images/CFD/WM-003/CFD-WM-003-003-HO.jpg,z,1.125
4,2,72,test,0,male,White,female,White,happy,,,,intact,z,953,False,False,,2,,,,False,175,WM-032,materials/cfd/Images/CFD/WM-032/CFD-WM-032-001-N.jpg,WF-014,materials/cfd/Images/CFD/WF-014/CFD-WF-014-004-HO.jpg,m,1.125
4,2,73,test,0,female,White,female,Black,neutral,,,,rearranged,m,834,False,False,,2,,,,False,177,WF-213,materials/cfd/Images/CFD/WF-213/CFD-WF-213-031-N.jpg,BF-245,materials/cfd/Images/CFD/BF-245/CFD-BF-245-178-N.jpg,z,1.125
4,2,74,test,0,female,Asian,female,Black,angry,,,,intact,z,709,False,False,,2,,,,False,179,AF-212,materials/cfd/Images/CFD/AF-212/CFD-AF-212-097-N.jpg,BF-017,materials/cfd/Images/CFD/BF-017/CFD-BF-017-011-A.jpg,m,1.125
4,2,75,test,0,female,Asian,female,Black,happy,,,,rearranged,z,744,True,False,,2,,,,False,181,AF-200,materials/cfd/Images/CFD/AF-200/CFD-AF-200-228-N.jpg,BF-039,materials/cfd/Images/CFD/BF-039/CFD-BF-039-033-HO.jpg,z,1.125
4,2,76,test,0,male,Black,male,White,neutral,,,,intact,m,1104,True,False,,2,,,,False,183,BM-031,materials/cfd/Images/CFD/BM-031/CFD-BM-031-003-N.jpg,WM-037,materials/cfd/Images/CFD/WM-037/CFD-WM-037-025-N.jpg,m,1.125
4,2,77,test,0,female,Black,male,Black,neutral,,,,rearranged,m,1291,False,False,,2,,,,False,185,BF-226,materials/cfd/Images/CFD/BF-226/CFD-BF-226-119-N.jpg,BM-029,materials/cfd/Images/CFD/BM-029/CFD-BM-029-024-N.jpg,z,1.125
4,2,78,test,0,female,Black,male,White,angry,,,,intact,z,333,False,False,,2,,,,False,187,BF-248,materials/cfd/Images/CFD/BF-248/CFD-BF-248-149-N.jpg,WM-041,materials/cfd/Images/CFD/WM-041/CFD-WM-041-009-A.jpg,m,1.125
4,2,79,test,0,male,White,female,White,neutral,,,,intact,z,1034,False,False,,2,,,,False,189,WM-245,materials/cfd/Images/CFD/WM-245/CFD-WM-245-123-N.jpg,WF-217,materials/cfd/Images/CFD/WF-217/CFD-WF-217-085-N.jpg,m,1.125
4,2,80,test,0,female,White,male,White,happy,,,,intact,z,959,False,False,,2,,,,False,191,WF-033,materials/cfd/Images/CFD/WF-033/CFD-WF-033-002-N.jpg,WM-001,materials/cfd/Images/CFD/WM-001/CFD-WM-001-011-HO.jpg,m,1.125
4,2,81,test,0,male,Asian,male,Black,angry,,,,rearranged,m,660,False,False,,2,,,,False,193,AM-253,materials/cfd/Images/CFD/AM-253/CFD-AM-253-161-N.jpg,BM-022,materials/cfd/Images/CFD/BM-022/CFD-BM-022-030-A.jpg,z,1.125
4,2,82,test,0,female,Latino,male,Black,angry,,,,intact,z,731,False,False,,2,,,,False,195,LF-236,materials/cfd/Images/CFD/LF-236/CFD-LF-236-221-N.jpg,BM-033,materials/cfd/Images/CFD/BM-033/CFD-BM-033-032-A.jpg,m,1.125
4,2,83,test,0,male,Latino,male,White,happy,,,,rearranged,m,1137,False,False,,2,,,,False,197,LM-250,materials/cfd/Images/CFD/LM-250/CFD-LM-250-077-N.jpg,WM-011,materials/cfd/Images/CFD/WM-011/CFD-WM-011-003-HO.jpg,z,1.125
4,2,84,test,0,male,Asian,male,Black,neutral,,,,rearranged,m,1336,False,False,,2,,,,False,199,AM-225,materials/cfd/Images/CFD/AM-225/CFD-AM-225-102-N.jpg,BM-251,materials/cfd/Images/CFD/BM-251/CFD-BM-251-013-N.jpg,z,1.125
4,2,85,test,0,female,Latino,male,White,neutral,,,,intact,z,576,False,False,,2,,,,False,201,LF-235,materials/cfd/Images/CFD/LF-235/CFD-LF-235-219-N.jpg,WM-013,materials/cfd/Images/CFD/WM-013/CFD-WM-013-001-N.jpg,m,1.125
4,2,86,test,0,male,White,male,Black,neutral,,,,rearranged,m,883,False,False,,2,,,,False,203,WM-255,materials/cfd/Images/CFD/WM-255/CFD-WM-255-219-N.jpg,BM-009,materials/cfd/Images/CFD/BM-009/CFD-BM-009-002-N.jpg,z,1.125
4,2,87,test,0,female,Latino,male,Black,angry,,,,rearranged,z,638,True,False,,2,,,,False,205,LF-211,materials/cfd/Images/CFD/LF-211/CFD-LF-211-003-N.jpg,BM-019,materials/cfd/Images/CFD/BM-019/CFD-BM-019-045-A.jpg,z,1.125
4,2,88,test,0,male,White,male,White,happy,,,,rearranged,m,991,False,False,,2,,,,False,207,WM-222,materials/cfd/Images/CFD/WM-222/CFD-WM-222-057-N.jpg,WM-014,materials/cfd/Images/CFD/WM-014/CFD-WM-014-004-HO.jpg,z,1.125
4,2,89,test,0,male,Black,female,White,neutral,,,,intact,z,1700,False,False,,2,,,,False,209,BM-210,materials/cfd/Images/CFD/BM-210/CFD-BM-210-148-N.jpg,WF-203,materials/cfd/Images/CFD/WF-203/CFD-WF-203-229-N.jpg,m,1.125
4,2,90,test,0,female,White,female,Black,happy,,,,intact,z,792,False,False,,2,,,,False,211,WF-218,materials/cfd/Images/CFD/WF-218/CFD-WF-218-087-N.jpg,BF-009,materials/cfd/Images/CFD/BF-009/CFD-BF-009-006-HO.jpg,m,1.125
4,2,91,test,1,male,Latino,female,White,angry,,,,rearranged,m,865,False,False,,2,,,,False,214,LM-232,materials/cfd/Images/CFD/LM-232/CFD-LM-232-204-N.jpg,WF-038,materials/cfd/Images/CFD/WF-038/CFD-WF-038-030-A.jpg,z,1.125
4,2,92,test,1,male,White,female,White,happy,,,,rearranged,m,704,False,False,,2,,,,False,216,WM-236,materials/cfd/Images/CFD/WM-236/CFD-WM-236-072-N.jpg,WF-001,materials/cfd/Images/CFD/WF-001/CFD-WF-001-009-HO.jpg,z,1.125
4,2,93,test,1,female,White,male,White,angry,,,,rearranged,z,1376,True,False,,2,,,,False,218,WF-017,materials/cfd/Images/CFD/WF-017/CFD-WF-017-003-N.jpg,WM-026,materials/cfd/Images/CFD/WM-026/CFD-WM-026-019-A.jpg,z,1.125
4,2,94,test,1,male,Latino,female,White,happy,,,,rearranged,m,758,False,False,,2,,,,False,220,LM-207,materials/cfd/Images/CFD/LM-207/CFD-LM-207-004-N.jpg,WF-016,materials/cfd/Images/CFD/WF-016/CFD-WF-016-003-HO.jpg,z,1.125
4,2,95,test,1,female,Latino,female,White,neutral,,,,intact,m,1491,True,False,,2,,,,False,222,LF-232,materials/cfd/Images/CFD/LF-232/CFD-LF-232-199-N.jpg,WF-008,materials/cfd/Images/CFD/WF-008/CFD-WF-008-002-N.jpg,m,1.125
4,2,96,test,1,female,White,female,White,neutral,,,,intact,z,730,False,False,,2,,,,False,224,WF-030,materials/cfd/Images/CFD/WF-030/CFD-WF-030-002-N.jpg,WF-225,materials/cfd/Images/CFD/WF-225/CFD-WF-225-101-N.jpg,m,1.125
4,2,97,test,1,male,Black,female,Black,neutral,,,,rearranged,m,645,False,False,,2,,,,False,226,BM-244,materials/cfd/Images/CFD/BM-244/CFD-BM-244-197-N.jpg,BF-213,materials/cfd/Images/CFD/BF-213/CFD-BF-213-188-N.jpg,z,1.125
4,2,98,test,1,female,Asian,female,Black,happy,,,,rearranged,z,971,True,False,,2,,,,False,228,AF-221,materials/cfd/Images/CFD/AF-221/CFD-AF-221-147-N.jpg,BF-040,materials/cfd/Images/CFD/BF-040/CFD-BF-040-043-HO.jpg,z,1.125
4,2,99,test,1,male,White,male,Black,happy,,,,intact,m,1102,True,False,,2,,,,False,230,WM-213,materials/cfd/Images/CFD/WM-213/CFD-WM-213-076-N.jpg,BM-016,materials/cfd/Images/CFD/BM-016/CFD-BM-016-040-HO.jpg,m,1.125
4,2,100,test,1,male,Black,male,White,happy,,,,intact,z,692,False,False,,2,,,,False,232,BM-041,materials/cfd/Images/CFD/BM-041/CFD-BM-041-035-N.jpg,WM-002,materials/cfd/Images/CFD/WM-002/CFD-WM-002-007-HO.jpg,m,1.125
4,2,101,test,1,female,White,female,Black,neutral,,,,rearranged,z,953,True,False,,2,,,,False,234,WF-018,materials/cfd/Images/CFD/WF-018/CFD-WF-018-017-N.jpg,BF-023,materials/cfd/Images/CFD/BF-023/CFD-BF-023-010-N.jpg,z,1.125
4,2,102,test,1,female,Latino,male,Black,neutral,,,,intact,m,1209,True,False,,2,,,,False,236,LF-222,materials/cfd/Images/CFD/LF-222/CFD-LF-222-147-N.jpg,BM-212,materials/cfd/Images/CFD/BM-212/CFD-BM-212-117-N.jpg,m,1.125
4,2,103,test,1,female,Black,female,White,angry,,,,rearranged,m,556,False,False,,2,,,,False,238,BF-254,materials/cfd/Images/CFD/BF-254/CFD-BF-254-201-N.jpg,WF-036,materials/cfd/Images/CFD/WF-036/CFD-WF-036-015-A.jpg,z,1.125
4,2,104,test,1,male,Black,male,White,angry,,,,intact,m,736,True,False,,2,,,,False,240,BM-044,materials/cfd/Images/CFD/BM-044/CFD-BM-044-001-N.jpg,WM-016,materials/cfd/Images/CFD/WM-016/CFD-WM-016-008-A.jpg,m,1.125
4,2,105,test,1,male,Asian,female,White,angry,,,,rearranged,z,669,True,False,,2,,,,False,242,AM-238,materials/cfd/Images/CFD/AM-238/CFD-AM-238-269-N.jpg,WF-026,materials/cfd/Images/CFD/WF-026/CFD-WF-026-008-A.jpg,z,1.125
4,2,106,test,1,female,White,male,Black,angry,,,,rearranged,z,742,True,False,,2,,,,False,244,WF-236,materials/cfd/Images/CFD/WF-236/CFD-WF-236-107-N.jpg,BM-034,materials/cfd/Images/CFD/BM-034/CFD-BM-034-040-A.jpg,z,1.125
4,2,107,test,1,female,Asian,male,White,happy,,,,rearranged,m,1067,False,False,,2,,,,False,246,AF-240,materials/cfd/Images/CFD/AF-240/CFD-AF-240-206-N.jpg,WM-040,materials/cfd/Images/CFD/WM-040/CFD-WM-040-023-HO.jpg,z,1.125
4,2,108,test,1,male,Asian,female,Black,neutral,,,,rearranged,z,863,True,False,,2,,,,False,248,AM-244,materials/cfd/Images/CFD/AM-244/CFD-AM-244-222-N.jpg,BF-221,materials/cfd/Images/CFD/BF-221/CFD-BF-221-223-N.jpg,z,1.125
4,2,109,test,1,female,Asian,female,White,happy,,,,intact,m,985,True,False,,2,,,,False,250,AF-219,materials/cfd/Images/CFD/AF-219/CFD-AF-219-106-N.jpg,WF-024,materials/cfd/Images/CFD/WF-024/CFD-WF-024-006-HO.jpg,m,1.125
