subject_number,condition,trial_number,phase,block,target_gender,target_race,flanker_gender,flanker_race,flanker_emotion,stimulus_type,study_flanker_emotion,study_flanker_gender,pair_type,response,rt,correct,timed_out,rating
1,1,1,study,0,female,Black,male,Black,angry,,,,,z,1205,True,False,
1,1,2,study,0,female,White,male,Black,happy,,,,,z,875,True,False,
1,1,3,study,0,female,Latino,male,Black,angry,,,,,z,753,True,False,
1,1,4,study,0,female,Black,male,Black,neutral,,,,,z,808,True,False,
1,1,5,study,0,female,White,female,Black,neutral,,,,,z,723,True,False,
1,1,6,study,0,male,White,male,White,angry,,,,,m,925,True,False,
1,1,7,study,0,male,Asian,female,White,neutral,,,,,m,765,True,False,
1,1,8,study,0,female,Asian,male,White,neutral,,,,,z,1286,True,False,
1,1,9,study,0,male,Latino,female,Black,neutral,,,,,m,840,True,False,
1,1,10,study,0,female,Asian,female,Black,happy,,,,,z,1095,True,False,
1,1,11,study,0,male,Asian,female,Black,happy,,,,,m,781,True,False,
1,1,12,study,0,male,Black,male,Black,happy,,,,,m,1682,True,False,
1,1,13,study,0,female,White,male,Black,angry,,,,,z,887,True,False,
1,1,14,study,0,female,White,female,Black,angry,,,,,z,710,True,False,
1,1,15,study,0,female,Black,female,White,happy,,,,,z,815,True,False,
1,1,16,study,0,male,Latino,female,White,happy,,,,,m,926,True,False,
1,1,17,study,0,female,White,female,Black,angry,,,,,z,1039,True,False,
1,1,18,study,0,male,Asian,male,Black,happy,,,,,m,822,True,False,
1,1,19,study,0,female,Black,male,Black,happy,,,,,z,895,True,False,
1,1,20,study,0,male,Asian,female,Black,angry,,,,,m,713,True,False,
1,1,21,study,0,male,Asian,female,White,happy,,,,,m,658,True,False,
1,1,22,study,0,female,Asian,female,Black,angry,,,,,z,1329,True,False,
1,1,23,study,0,female,Latino,male,Black,neutral,,,,,z,917,True,False,
1,1,24,study,0,male,Black,female,Black,angry,,,,,m,623,True,False,
1,1,25,study,0,female,Asian,male,Black,happy,,,,,z,557,True,False,
1,1,26,study,0,male,White,female,Black,neutral,,,,,m,937,True,False,
1,1,27,study,0,female,White,male,Black,angry,,,,,z,855,True,False,
1,1,28,study,0,male,Latino,male,White,angry,,,,,m,741,True,False,
1,1,29,study,0,male,Asian,male,Black,happy,,,,,m,863,True,False,
1,1,30,study,0,female,Black,female,Black,neutral,,,,,z,739,True,False,
1,1,31,study,1,female,Latino,female,White,angry,,,,,z,1471,True,False,
1,1,32,study,1,female,Black,female,Black,happy,,,,,z,931,True,False,
1,1,33,study,1,male,White,female,Black,happy,,,,,m,655,True,False,
1,1,34,study,1,male,Black,male,White,angry,,,,,m,700,True,False,
1,1,35,study,1,male,White,male,White,happy,,,,,m,717,True,False,
1,1,36,study,1,female,Asian,female,Black,neutral,,,,,z,852,True,False,
1,1,37,study,1,male,Asian,female,Black,neutral,,,,,m,1140,True,False,
1,1,38,study,1,male,Latino,female,White,angry,,,,,m,1198,True,False,
1,1,39,study,1,female,White,male,Black,neutral,,,,,z,774,True,False,
1,1,40,study,1,male,Asian,male,White,neutral,,,,,m,1351,True,False,
1,1,41,study,1,male,White,male,Black,angry,,,,,m,972,True,False,
1,1,42,study,1,male,Asian,female,Black,happy,,,,,m,1166,True,False,
1,1,43,study,1,female,Asian,male,White,happy,,,,,z,1158,True,False,
1,1,44,study,1,male,White,female,Black,neutral,,,,,m,850,True,False,
1,1,45,study,1,male,White,male,Black,neutral,,,,,m,681,True,False,
1,1,46,study,1,female,Latino,female,Black,neutral,,,,,z,906,True,False,
1,1,47,study,1,male,White,male,White,happy,,,,,m,846,True,False,
1,1,48,study,1,male,White,female,Black,angry,,,,,m,999,True,False,
1,1,49,study,1,male,Asian,male,Black,angry,,,,,m,829,True,False,
1,1,50,study,1,female,Black,female,Black,neutral,,,,,z,1121,True,False,
1,1,51,study,1,female,Latino,male,Black,neutral,,,,,z,1128,True,False,
1,1,52,study,1,female,Latino,female,White,angry,,,,,z,832,True,False,
1,1,53,study,1,male,Latino,female,White,angry,,,,,m,1217,True,False,
1,1,54,study,1,female,Black,male,Black,angry,,,,,z,899,True,False,
1,1,55,study,1,female,White,female,Black,happy,,,,,z,851,True,False,
1,1,56,study,1,male,Latino,male,Black,neutral,,,,,z,1370,False,False,
1,1,57,study,1,female,White,female,Black,happy,,,,,z,930,True,False,
1,1,58,study,1,male,Latino,male,Black,neutral,,,,,m,930,True,False,
1,1,59,study,1,female,Black,male,Black,happy,,,,,z,953,True,False,
1,1,60,study,1,male,Black,male,Black,neutral,,,,,m,1073,True,False,
1,1,61,test,0,male,Black,,,,new,,,,z,1441,False,False,
1,1,62,test,0,female,Latino,,,,old,angry,male,,m,987,False,False,
1,1,63,test,0,female,Black,,,,old,happy,female,,z,1018,True,False,
1,1,64,test,0,male,White,,,,new,,,,m,985,True,False,
1,1,65,test,0,male,White,,,,old,happy,male,,m,728,False,False,
1,1,66,test,0,male,White,,,,new,,,,m,671,True,False,
1,1,67,test,0,female,White,,,,old,angry,male,,z,1360,True,False,
1,1,68,test,0,female,White,,,,new,,,,m,975,True,False,
1,1,69,test,0,female,Black,,,,old,happy,male,,m,1340,False,False,
1,1,70,test,0,female,Black,,,,old,angry,male,,m,955,False,False,
1,1,71,test,0,male,Latino,,,,old,angry,male,,z,1797,True,False,
1,1,72,test,0,male,White,,,,new,,,,m,1909,True,False,
1,1,73,test,0,female,White,,,,new,,,,m,966,True,False,
1,1,74,test,0,female,Asian,,,,new,,,,m,988,True,False,
1,1,75,test,0,female,White,,,,old,neutral,male,,m,1255,False,False,
1,1,76,test,0,female,White,,,,new,,,,m,873,True,False,
1,1,77,test,0,male,Latino,,,,old,angry,female,,m,2091,False,False,
1,1,78,test,0,female,Asian,,,,new,,,,m,1023,True,False,
1,1,79,test,0,female,Asian,,,,old,neutral,male,,z,851,True,False,
1,1,80,test,0,female,Asian,,,,new,,,,m,1242,True,False,
1,1,81,test,0,female,Asian,,,,old,neutral,female,,z,1425,True,False,
1,1,82,test,0,female,White,,,,old,angry,female,,z,918,True,False,
1,1,83,test,0,male,White,,,,old,neutral,male,,z,1487,True,False,
1,1,84,test,0,female,Latino,,,,new,,,,m,700,True,False,
1,1,85,test,0,male,Latino,,,,old,neutral,male,,z,1147,True,False,
1,1,86,test,0,male,Black,,,,old,neutral,male,,z,836,True,False,
1,1,87,test,0,male,White,,,,new,,,,m,1134,True,False,
1,1,88,test,0,female,Asian,,,,new,,,,m,871,True,False,
1,1,89,test,0,male,Black,,,,old,happy,male,,z,1229,True,False,
1,1,90,test,0,female,Black,,,,new,,,,z,2051,False,False,
1,1,91,test,0,male,Black,,,,new,,,,m,914,True,False,
1,1,92,test,0,female,Latino,,,,new,,,,m,1047,True,False,
1,1,93,test,0,male,Asian,,,,old,angry,male,,z,694,True,False,
1,1,94,test,0,male,Asian,,,,new,,,,m,1084,True,False,
1,1,95,test,0,male,Asian,,,,old,happy,female,,m,815,False,False,
1,1,96,test,0,female,Asian,,,,new,,,,m,946,True,False,
1,1,97,test,0,male,Asian,,,,old,happy,female,,m,838,False,False,
1,1,98,test,0,male,Asian,,,,new,,,,m,1025,True,False,
1,1,99,test,0,female,Black,,,,old,neutral,male,,m,1363,False,False,
1,1,100,test,0,male,Latino,,,,new,,,,z,1108,False,False,
1,1,101,test,1,female,Latino,,,,old,neutral,female,,m,1070,False,False,
1,1,102,test,1,female,Black,,,,old,neutral,female,,m,958,False,False,
1,1,103,test,1,male,White,,,,new,,,,m,762,True,False,
1,1,104,test,1,male,Asian,,,,old,neutral,female,,m,1240,False,False,
1,1,105,test,1,male,Black,,,,new,,,,m,1071,True,False,
1,1,106,test,1,female,Black,,,,old,happy,male,,m,1221,False,False,
1,1,107,test,1,female,Black,,,,old,neutral,female,,m,990,False,False,
1,1,108,test,1,male,White,,,,old,angry,female,,z,1140,True,False,
1,1,109,test,1,female,Black,,,,new,,,,m,1205,True,False,
1,1,110,test,1,male,Asian,,,,new,,,,z,927,False,False,
1,1,111,test,1,female,Latino,,,,new,,,,m,2031,True,False,
1,1,112,test,1,male,White,,,,new,,,,z,919,False,False,
1,1,113,test,1,female,Latino,,,,old,angry,female,,m,955,False,False,
1,1,114,test,1,male,Black,,,,new,,,,m,701,True,False,
1,1,115,test,1,female,Black,,,,new,,,,m,1139,True,False,
1,1,116,test,1,male,Latino,,,,old,happy,female,,m,794,False,False,
1,1,117,test,1,male,Black,,,,old,angry,male,,z,1118,True,False,
1,1,118,test,1,male,Asian,,,,old,happy,male,,m,1238,False,False,
1,1,119,test,1,female,White,,,,old,angry,male,,z,1241,True,False,
1,1,120,test,1,male,Latino,,,,new,,,,m,983,True,False,
1,1,121,test,1,female,Latino,,,,old,angry,female,,m,1027,False,False,
1,1,122,test,1,male,Asian,,,,new,,,,m,945,True,False,
1,1,123,test,1,female,Asian,,,,old,happy,male,,m,613,False,False,
1,1,124,test,1,male,Latino,,,,old,neutral,male,,m,1113,False,False,
1,1,125,test,1,male,Asian,,,,old,angry,female,,m,1157,False,False,
1,1,126,test,1,female,Black,,,,new,,,,m,928,True,False,
1,1,127,test,1,male,Latino,,,,old,neutral,female,,m,955,False,False,
1,1,128,test,1,female,White,,,,old,angry,female,,m,1208,False,False,
1,1,129,test,1,male,Asian,,,,old,happy,female,,m,1416,False,False,
1,1,130,test,1,female,Black,,,,new,,,,m,1356,True,False,
1,1,131,test,1,female,Black,,,,new,,,,m,935,True,False,
1,1,132,test,1,female,Latino,,,,new,,,,m,1253,True,False,
1,1,133,test,1,female,Asian,,,,old,happy,female,,m,847,False,False,
1,1,134,test,1,female,White,,,,old,neutral,female,,m,846,False,False,
1,1,135,test,1,male,White,,,,old,neutral,female,,z,776,True,False,
1,1,136,test,1,female,Black,,,,new,,,,z,753,False,False,
1,1,137,test,1,female,Latino,,,,old,neutral,male,,m,934,False,False,
1,1,138,test,1,female,Latino,,,,old,neutral,male,,m,1211,False,False,
1,1,139,test,1,male,White,,,,new,,,,z,1129,False,False,
1,1,140,test,1,male,Latino,,,,new,,,,m,654,True,False,
1,1,141,test,2,male,Latino,,,,new,,,,m,1094,True,False,
1,1,142,test,2,male,White,,,,old,neutral,female,,m,698,False,False,
1,1,143,test,2,female,Latino,,,,new,,,,m,889,True,False,
1,1,144,test,2,female,Asian,,,,new,,,,m,880,True,False,
1,1,145,test,2,male,Latino,,,,new,,,,m,957,True,False,
1,1,146,test,2,female,White,,,,old,happy,female,,m,897,False,False,
1,1,147,test,2,male,Asian,,,,new,,,,m,956,True,False,
1,1,148,test,2,male,Black,,,,old,angry,female,,z,909,True,False,
1,1,149,test,2,male,White,,,,old,angry,male,,m,1202,False,False,
1,1,150,test,2,female,Black,,,,old,angry,male,,z,791,True,False,
1,1,151,test,2,male,White,,,,old,happy,female,,m,788,False,False,
1,1,152,test,2,female,Black,,,,old,happy,female,,z,894,True,False,
1,1,153,test,2,female,Asian,,,,old,angry,female,,m,924,False,False,
1,1,154,test,2,male,Black,,,,new,,,,z,2120,False,False,
1,1,155,test,2,male,Black,,,,new,,,,m,1035,True,False,
1,1,156,test,2,female,Asian,,,,new,,,,m,947,True,False,
1,1,157,test,2,male,Asian,,,,new,,,,m,623,True,False,
1,1,158,test,2,female,White,,,,new,,,,m,1218,True,False,
1,1,159,test,2,female,Black,,,,new,,,,m,1169,True,False,
1,1,160,test,2,male,Asian,,,,old,happy,male,,m,2573,False,False,
1,1,161,test,2,female,White,,,,new,,,,m,654,True,False,
1,1,162,test,2,male,White,,,,old,angry,male,,z,903,True,False,
1,1,163,test,2,female,White,,,,old,happy,female,,m,589,False,False,
1,1,164,test,2,male,Latino,,,,old,angry,female,,m,717,False,False,
1,1,165,test,2,male,White,,,,new,,,,m,727,True,False,
1,1,166,test,2,male,White,,,,new,,,,m,1060,True,False,
1,1,167,test,2,male,Asian,,,,old,neutral,female,,m,662,False,False,
1,1,168,test,2,male,White,,,,old,happy,male,,m,675,False,False,
1,1,169,test,2,male,Black,,,,new,,,,m,2013,True,False,
1,1,170,test,2,female,Asian,,,,old,happy,male,,m,731,False,False,
1,1,171,test,2,male,Latino,,,,new,,,,m,692,True,False,
1,1,172,test,2,male,White,,,,new,,,,m,762,True,False,
1,1,173,test,2,female,Asian,,,,new,,,,m,975,True,False,
1,1,174,test,2,female,Black,,,,new,,,,m,996,True,False,
1,1,175,test,2,female,Black,,,,new,,,,m,1037,True,False,
1,1,176,test,2,female,White,,,,old,happy,male,,z,1007,True,False,
1,1,177,test,2,male,Asian,,,,old,neutral,male,,z,2201,True,False,
1,1,178,test,2,male,White,,,,new,,,,m,855,True,False,
1,1,179,test,2,female,Asian,,,,new,,,,m,642,True,False,
1,1,180,test,2,female,Latino,,,,new,,,,,,False,True,
2,1,1,study,0,male,Black,female,Black,happy,,,,,m,1604,True,False,
2,1,2,study,0,male,Asian,male,Black,happy,,,,,m,682,True,False,
2,1,3,study,0,male,Black,female,White,angry,,,,,m,815,True,False,
2,1,4,study,0,male,Asian,male,White,angry,,,,,m,796,True,False,
2,1,5,study,0,male,Asian,male,White,neutral,,,,,m,643,True,False,
2,1,6,study,0,female,Black,female,Black,happy,,,,,z,2084,True,False,
2,1,7,study,0,male,White,female,Black,happy,,,,,m,794,True,False,
2,1,8,study,0,male,Black,female,Black,angry,,,,,m,1252,True,False,
2,1,9,study,0,female,Black,male,White,angry,,,,,z,1531,True,False,
2,1,10,study,0,male,Latino,female,Black,angry,,,,,m,810,True,False,
2,1,11,study,0,male,Latino,male,Black,happy,,,,,m,780,True,False,
2,1,12,study,0,female,Black,female,White,happy,,,,,z,986,True,False,
2,1,13,study,0,female,White,female,Black,neutral,,,,,z,802,True,False,
2,1,14,study,0,female,White,female,Black,angry,,,,,z,705,True,False,
2,1,15,study,0,female,Latino,female,White,neutral,,,,,z,734,True,False,
2,1,16,study,0,male,Black,male,Black,angry,,,,,,,False,True,
2,1,17,study,0,female,Asian,male,Black,happy,,,,,z,627,True,False,
2,1,18,study,0,male,Asian,male,White,happy,,,,,m,820,True,False,
2,1,19,study,0,male,Black,female,Black,neutral,,,,,m,560,True,False,
2,1,20,study,0,female,White,female,White,angry,,,,,z,926,True,False,
2,1,21,study,0,male,Latino,male,Black,neutral,,,,,m,1906,True,False,
2,1,22,study,0,female,Latino,male,Black,happy,,,,,z,855,True,False,
2,1,23,study,0,female,Asian,male,White,angry,,,,,z,1756,True,False,
2,1,24,study,0,female,Latino,female,Black,angry,,,,,z,1189,True,False,
2,1,25,study,0,female,White,male,Black,neutral,,,,,z,730,True,False,
2,1,26,study,0,female,Asian,male,Black,happy,,,,,z,679,True,False,
2,1,27,study,0,female,Black,female,Black,angry,,,,,z,790,True,False,
2,1,28,study,0,male,Latino,female,Black,angry,,,,,m,929,True,False,
2,1,29,study,0,female,Asian,female,Black,neutral,,,,,z,638,True,False,
2,1,30,study,0,male,Black,female,White,neutral,,,,,m,486,True,False,
2,1,31,study,1,male,Asian,female,White,happy,,,,,m,854,True,False,
2,1,32,study,1,male,Latino,male,White,happy,,,,,m,671,True,False,
2,1,33,study,1,male,Latino,female,White,neutral,,,,,m,505,True,False,
2,1,34,study,1,female,Black,male,White,happy,,,,,z,675,True,False,
2,1,35,study,1,male,White,male,White,angry,,,,,m,1117,True,False,
2,1,36,study,1,male,White,female,Black,neutral,,,,,m,759,True,False,
2,1,37,study,1,female,Black,female,Black,happy,,,,,z,606,True,False,
2,1,38,study,1,female,Black,male,White,neutral,,,,,z,1300,True,False,
2,1,39,study,1,male,White,female,White,happy,,,,,m,776,True,False,
2,1,40,study,1,female,Black,female,Black,happy,,,,,z,807,True,False,
2,1,41,study,1,male,Asian,male,Black,neutral,,,,,m,1139,True,False,
2,1,42,study,1,female,White,male,Black,neutral,,,,,z,1139,True,False,
2,1,43,study,1,male,Black,male,Black,happy,,,,,m,949,True,False,
2,1,44,study,1,female,Black,male,White,happy,,,,,z,1190,True,False,
2,1,45,study,1,female,Black,female,White,neutral,,,,,z,519,True,False,
2,1,46,study,1,female,Black,male,Black,angry,,,,,z,1031,True,False,
2,1,47,study,1,female,Latino,male,White,neutral,,,,,z,767,True,False,
2,1,48,study,1,male,White,male,White,neutral,,,,,m,1253,True,False,
2,1,49,study,1,male,Latino,female,White,neutral,,,,,m,658,True,False,
2,1,50,study,1,female,Latino,male,White,angry,,,,,z,670,True,False,
2,1,51,study,1,female,Black,female,White,happy,,,,,z,817,True,False,
2,1,52,study,1,female,Black,male,White,neutral,,,,,z,509,True,False,
2,1,53,study,1,male,Asian,female,White,happy,,,,,m,1254,True,False,
2,1,54,study,1,female,Black,female,White,neutral,,,,,z,1237,True,False,
2,1,55,study,1,female,Black,male,Black,angry,,,,,z,1031,True,False,
2,1,56,study,1,male,White,male,Black,angry,,,,,m,797,True,False,
2,1,57,study,1,male,Asian,male,Black,neutral,,,,,m,853,True,False,
2,1,58,study,1,male,White,female,White,angry,,,,,m,1008,True,False,
2,1,59,study,1,male,Latino,male,Black,angry,,,,,m,842,True,False,
2,1,60,study,1,female,White,female,White,angry,,,,,z,601,True,False,
2,1,61,test,0,male,Black,,,,new,,,,z,1641,False,False,
2,1,62,test,0,male,Black,,,,new,,,,m,2675,True,False,
2,1,63,test,0,female,Black,,,,old,happy,female,,z,1451,True,False,
2,1,64,test,0,male,Asian,,,,new,,,,z,1076,False,False,
2,1,65,test,0,male,Asian,,,,new,,,,,,False,True,
2,1,66,test,0,female,White,,,,new,,,,m,1068,True,False,
2,1,67,test,0,female,Black,,,,new,,,,m,2318,True,False,
2,1,68,test,0,male,Asian,,,,old,angry,male,,z,979,True,False,
2,1,69,test,0,male,Latino,,,,new,,,,m,1290,True,False,
2,1,70,test,0,male,Asian,,,,old,happy,female,,z,1686,True,False,
2,1,71,test,0,female,Asian,,,,new,,,,m,2231,True,False,
2,1,72,test,0,male,Asian,,,,old,happy,female,,z,1922,True,False,
2,1,73,test,0,male,Black,,,,new,,,,m,1044,True,False,
2,1,74,test,0,female,Black,,,,old,happy,female,,,,False,True,
2,1,75,test,0,male,White,,,,new,,,,z,1189,False,False,
2,1,76,test,0,male,Latino,,,,old,neutral,female,,m,1392,False,False,
2,1,77,test,0,female,White,,,,new,,,,z,1234,False,False,
2,1,78,test,0,female,Black,,,,old,angry,male,,m,1895,False,False,
2,1,79,test,0,male,Asian,,,,new,,,,m,1998,True,False,
2,1,80,test,0,male,Latino,,,,old,happy,male,,m,1407,False,False,
2,1,81,test,0,female,White,,,,new,,,,m,979,True,False,
2,1,82,test,0,female,White,,,,old,neutral,male,,m,1181,False,False,
2,1,83,test,0,male,Asian,,,,old,neutral,male,,m,1639,False,False,
2,1,84,test,0,male,White,,,,old,angry,male,,m,1517,False,False,
2,1,85,test,0,female,Asian,,,,new,,,,m,987,True,False,
2,1,86,test,0,female,Asian,,,,new,,,,m,2120,True,False,
2,1,87,test,0,male,White,,,,old,neutral,female,,m,1629,False,False,
2,1,88,test,0,female,Asian,,,,old,happy,male,,z,1852,True,False,
2,1,89,test,0,male,Latino,,,,old,happy,male,,z,1730,True,False,
2,1,90,test,0,male,Asian,,,,new,,,,m,2106,True,False,
2,1,91,test,0,male,White,,,,old,angry,male,,m,2545,False,False,
2,1,92,test,0,male,Black,,,,old,angry,male,,z,2422,True,False,
2,1,93,test,0,female,Black,,,,old,angry,male,,z,1421,True,False,
2,1,94,test,0,female,White,,,,old,angry,female,,z,2146,True,False,
2,1,95,test,0,female,Asian,,,,old,angry,male,,z,994,True,False,
2,1,96,test,0,male,Latino,,,,old,angry,female,,z,2340,True,False,
2,1,97,test,0,male,Latino,,,,old,neutral,male,,m,1465,False,False,
2,1,98,test,0,male,Asian,,,,old,happy,male,,m,1644,False,False,
2,1,99,test,0,female,White,,,,old,angry,female,,m,2458,False,False,
2,1,100,test,0,female,Asian,,,,new,,,,m,1673,True,False,
2,1,101,test,1,female,Latino,,,,new,,,,z,897,False,False,
2,1,102,test,1,male,Latino,,,,new,,,,z,1403,False,False,
2,1,103,test,1,male,Latino,,,,new,,,,m,1090,True,False,
2,1,104,test,1,female,Black,,,,old,happy,male,,z,1740,True,False,
2,1,105,test,1,male,Latino,,,,old,angry,male,,m,1320,False,False,
2,1,106,test,1,female,White,,,,old,angry,female,,m,1472,False,False,
2,1,107,test,1,male,Black,,,,old,happy,male,,m,1797,False,False,
2,1,108,test,1,male,Black,,,,old,neutral,female,,z,1729,True,False,
2,1,109,test,1,female,Latino,,,,old,angry,female,,z,1238,True,False,
2,1,110,test,1,female,White,,,,new,,,,m,1245,True,False,
2,1,111,test,1,male,Latino,,,,old,neutral,female,,m,1546,False,False,
2,1,112,test,1,male,Asian,,,,old,neutral,male,,z,1108,True,False,
2,1,113,test,1,female,Black,,,,old,neutral,female,,z,784,True,False,
2,1,114,test,1,male,Latino,,,,new,,,,z,1128,False,False,
2,1,115,test,1,male,Black,,,,new,,,,m,1161,True,False,
2,1,116,test,1,male,Black,,,,old,angry,female,,z,1052,True,False,
2,1,117,test,1,male,Black,,,,new,,,,z,1432,False,False,
2,1,118,test,1,male,Latino,,,,new,,,,m,959,True,False,
2,1,119,test,1,female,Black,,,,old,angry,male,,z,1618,True,False,
2,1,120,test,1,female,White,,,,old,neutral,female,,z,1662,True,False,
2,1,121,test,1,female,Latino,,,,new,,,,m,1078,True,False,
2,1,122,test,1,female,Asian,,,,new,,,,z,1747,False,False,
2,1,123,test,1,male,Black,,,,old,angry,female,,z,959,True,False,
2,1,124,test,1,male,Black,,,,old,happy,female,,z,909,True,False,
2,1,125,test,1,female,Black,,,,old,happy,female,,m,2063,False,False,
2,1,126,test,1,male,Latino,,,,new,,,,m,1261,True,False,
2,1,127,test,1,male,White,,,,old,angry,female,,z,789,True,False,
2,1,128,test,1,male,Latino,,,,new,,,,z,1195,False,False,
2,1,129,test,1,female,White,,,,new,,,,m,1887,True,False,
2,1,130,test,1,female,Latino,,,,new,,,,m,1464,True,False,
2,1,131,test,1,male,Latino,,,,new,,,,z,1430,False,False,
2,1,132,test,1,female,Black,,,,old,happy,female,,z,848,True,False,
2,1,133,test,1,female,White,,,,new,,,,m,724,True,False,
2,1,134,test,1,female,Asian,,,,old,happy,male,,m,1913,False,False,
2,1,135,test,1,female,Black,,,,new,,,,z,908,False,False,
2,1,136,test,1,female,Latino,,,,old,neutral,male,,m,925,False,False,
2,1,137,test,1,male,White,,,,old,happy,female,,m,953,False,False,
2,1,138,test,1,female,Asian,,,,new,,,,z,2421,False,False,
2,1,139,test,1,male,Latino,,,,new,,,,m,1825,True,False,
2,1,140,test,1,female,Asian,,,,new,,,,m,1332,True,False,
2,1,141,test,2,male,Latino,,,,old,angry,female,,m,1037,False,False,
2,1,142,test,2,male,Latino,,,,new,,,,m,873,True,False,
2,1,143,test,2,female,Black,,,,new,,,,z,1009,False,False,
2,1,144,test,2,female,Asian,,,,new,,,,m,1210,True,False,
2,1,145,test,2,female,Black,,,,old,neutral,male,,z,884,True,False,
2,1,146,test,2,female,Black,,,,new,,,,m,1013,True,False,
2,1,147,test,2,female,Black,,,,old,angry,female,,z,837,True,False,
2,1,148,test,2,male,Asian,,,,new,,,,m,1558,True,False,
2,1,149,test,2,female,Asian,,,,old,neutral,female,,z,921,True,False,
2,1,150,test,2,male,Black,,,,new,,,,m,2342,True,False,
2,1,151,test,2,female,Latino,,,,old,neutral,female,,m,976,False,False,
2,1,152,test,2,female,Latino,,,,old,angry,male,,m,2380,False,False,
2,1,153,test,2,male,Black,,,,old,neutral,female,,z,880,True,False,
2,1,154,test,2,male,Asian,,,,new,,,,z,921,False,False,
2,1,155,test,2,female,White,,,,new,,,,m,1599,True,False,
2,1,156,test,2,female,Black,,,,old,neutral,male,,z,1131,True,False,
2,1,157,test,2,female,Black,,,,old,happy,female,,z,848,True,False,
2,1,158,test,2,male,Black,,,,new,,,,z,816,False,False,
2,1,159,test,2,female,Black,,,,new,,,,m,1273,True,False,
2,1,160,test,2,male,Asian,,,,new,,,,m,1308,True,False,
2,1,161,test,2,male,Asian,,,,old,happy,male,,z,1084,True,False,
2,1,162,test,2,male,Black,,,,new,,,,z,1950,False,False,
2,1,163,test,2,male,White,,,,old,happy,female,,z,873,True,False,
2,1,164,test,2,female,White,,,,new,,,,z,2272,False,False,
2,1,165,test,2,female,Black,,,,new,,,,m,1496,True,False,
2,1,166,test,2,female,Latino,,,,old,happy,male,,z,1408,True,False,
2,1,167,test,2,female,Latino,,,,new,,,,z,929,False,False,
2,1,168,test,2,female,Black,,,,old,happy,male,,m,1755,False,False,
2,1,169,test,2,female,White,,,,old,neutral,male,,z,1426,True,False,
2,1,170,test,2,male,Asian,,,,new,,,,z,996,False,False,
2,1,171,test,2,male,White,,,,old,neutral,male,,m,1908,False,False,
2,1,172,test,2,male,Asian,,,,old,neutral,male,,z,1266,True,False,
2,1,173,test,2,female,Black,,,,old,neutral,female,,z,1019,True,False,
2,1,174,test,2,female,White,,,,new,,,,m,888,True,False,
2,1,175,test,2,male,White,,,,new,,,,z,1023,False,False,
2,1,176,test,2,female,Latino,,,,new,,,,z,1424,False,False,
2,1,177,test,2,male,White,,,,new,,,,m,948,True,False,
2,1,178,test,2,female,Black,,,,new,,,,z,1246,False,False,
2,1,179,test,2,female,Black,,,,new,,,,z,1013,False,False,
2,1,180,test,2,male,White,,,,new,,,,m,952,True,False,
3,1,1,study,0,male,Black,female,White,neutral,,,,,m,529,True,False,
3,1,2,study,0,female,White,female,White,neutral,,,,,z,441,True,False,
3,1,3,study,0,female,Black,male,White,neutral,,,,,z,787,True,False,
3,1,4,study,0,male,Asian,male,White,neutral,,,,,m,578,True,False,
3,1,5,study,0,male,Black,female,White,happy,,,,,m,503,True,False,
3,1,6,study,0,male,Asian,male,Black,neutral,,,,,m,520,True,False,
3,1,7,study,0,male,Black,male,Black,angry,,,,,m,573,True,False,
3,1,8,study,0,male,Asian,female,Black,neutral,,,,,m,595,True,False,
3,1,9,study,0,female,Latino,male,White,neutral,,,,,z,518,True,False,
3,1,10,study,0,male,White,female,Black,angry,,,,,m,552,True,False,
3,1,11,study,0,male,Asian,female,Black,neutral,,,,,m,496,True,False,
3,1,12,study,0,female,Black,male,White,neutral,,,,,z,808,True,False,
3,1,13,study,0,male,Latino,male,Black,angry,,,,,m,884,True,False,
3,1,14,study,0,female,White,female,White,neutral,,,,,z,1162,True,False,
3,1,15,study,0,male,Black,male,Black,happy,,,,,m,796,True,False,
3,1,16,study,0,female,Black,female,Black,happy,,,,,z,966,True,False,
3,1,17,study,0,female,Black,male,Black,angry,,,,,z,1058,True,False,
3,1,18,study,0,male,Black,female,Black,angry,,,,,m,1187,True,False,
3,1,19,study,0,female,White,male,Black,happy,,,,,z,1088,True,False,
3,1,20,study,0,female,Black,male,White,angry,,,,,z,1070,True,False,
3,1,21,study,0,female,White,male,White,angry,,,,,z,791,True,False,
3,1,22,study,0,male,Black,male,White,happy,,,,,m,867,True,False,
3,1,23,study,0,female,Latino,female,Black,happy,,,,,z,761,True,False,
3,1,24,study,0,female,Black,male,Black,happy,,,,,z,926,True,False,
3,1,25,study,0,male,Black,female,Black,angry,,,,,m,960,True,False,
3,1,26,study,0,male,White,male,White,angry,,,,,m,965,True,False,
3,1,27,study,0,female,Latino,male,White,happy,,,,,z,988,True,False,
3,1,28,study,0,male,Black,male,White,angry,,,,,m,864,True,False,
3,1,29,study,0,female,White,female,White,happy,,,,,z,941,True,False,
3,1,30,study,0,male,Asian,female,Black,angry,,,,,m,956,True,False,
3,1,31,study,1,female,Asian,male,Black,angry,,,,,z,766,True,False,
3,1,32,study,1,female,White,female,White,angry,,,,,z,988,True,False,
3,1,33,study,1,female,Asian,male,White,neutral,,,,,z,1147,True,False,
3,1,34,study,1,male,Asian,female,White,happy,,,,,m,1043,True,False,
3,1,35,study,1,male,White,male,Black,happy,,,,,m,1088,True,False,
3,1,36,study,1,male,Black,female,Black,angry,,,,,m,1154,True,False,
3,1,37,study,1,male,White,male,Black,angry,,,,,m,970,True,False,
3,1,38,study,1,female,Black,female,Black,angry,,,,,z,865,True,False,
3,1,39,study,1,female,Black,male,White,angry,,,,,z,1062,True,False,
3,1,40,study,1,male,Black,female,Black,happy,,,,,m,934,True,False,
3,1,41,study,1,female,Latino,female,Black,angry,,,,,z,955,True,False,
3,1,42,study,1,female,White,female,White,happy,,,,,z,1239,True,False,
3,1,43,study,1,male,Latino,male,Black,happy,,,,,m,944,True,False,
3,1,44,study,1,female,Asian,female,White,angry,,,,,z,1087,True,False,
3,1,45,study,1,male,Latino,female,White,neutral,,,,,m,955,True,False,
3,1,46,study,1,female,Black,female,Black,neutral,,,,,z,1120,True,False,
3,1,47,study,1,female,Latino,female,Black,happy,,,,,z,1063,True,False,
3,1,48,study,1,female,Asian,female,White,angry,,,,,z,955,True,False,
3,1,49,study,1,male,Black,male,White,neutral,,,,,m,935,True,False,
3,1,50,study,1,male,Asian,female,Black,happy,,,,,m,869,True,False,
3,1,51,study,1,male,Asian,female,Black,neutral,,,,,m,1136,True,False,
3,1,52,study,1,female,Black,male,Black,happy,,,,,z,1026,True,False,
3,1,53,study,1,female,Black,male,White,neutral,,,,,z,865,True,False,
3,1,54,study,1,female,Black,female,White,neutral,,,,,z,961,True,False,
3,1,55,study,1,female,White,male,Black,happy,,,,,z,1214,True,False,
3,1,56,study,1,male,White,male,White,neutral,,,,,m,928,True,False,
3,1,57,study,1,male,Black,male,White,happy,,,,,m,1004,True,False,
3,1,58,study,1,female,Latino,female,White,neutral,,,,,z,881,True,False,
3,1,59,study,1,male,Latino,male,White,neutral,,,,,m,926,True,False,
3,1,60,study,1,male,Asian,female,White,happy,,,,,m,891,True,False,
3,1,61,test,0,male,White,,,,new,,,,z,1140,False,False,
3,1,62,test,0,male,Asian,,,,old,happy,female,,z,1660,True,False,
3,1,63,test,0,male,Asian,,,,old,neutral,male,,m,923,False,False,
3,1,64,test,0,female,Asian,,,,old,neutral,male,,z,907,True,False,
3,1,65,test,0,male,White,,,,old,angry,male,,m,805,False,False,
3,1,66,test,0,male,Latino,,,,new,,,,m,1043,True,False,
3,1,67,test,0,female,Black,,,,old,happy,male,,m,1334,False,False,
3,1,68,test,0,female,Black,,,,old,angry,male,,z,802,True,False,
3,1,69,test,0,male,Asian,,,,old,neutral,female,,z,986,True,False,
3,1,70,test,0,male,Latino,,,,new,,,,m,1138,True,False,
3,1,71,test,0,male,White,,,,new,,,,m,1094,True,False,
3,1,72,test,0,male,Latino,,,,old,neutral,female,,m,1182,False,False,
3,1,73,test,0,male,Asian,,,,old,happy,female,,m,834,False,False,
3,1,74,test,0,female,Asian,,,,new,,,,z,1135,False,False,
3,1,75,test,0,female,Latino,,,,old,happy,male,,z,1087,True,False,
3,1,76,test,0,male,White,,,,old,happy,male,,z,872,True,False,
3,1,77,test,0,male,Latino,,,,old,neutral,male,,z,802,True,False,
3,1,78,test,0,male,Asian,,,,new,,,,m,1024,True,False,
3,1,79,test,0,female,Black,,,,old,neutral,female,,z,890,True,False,
3,1,80,test,0,male,Black,,,,old,angry,female,,z,1308,True,False,
3,1,81,test,0,female,Asian,,,,new,,,,m,928,True,False,
3,1,82,test,0,female,White,,,,old,angry,male,,z,1450,True,False,
3,1,83,test,0,male,Black,,,,old,angry,female,,z,954,True,False,
3,1,84,test,0,female,White,,,,new,,,,m,1048,True,False,
3,1,85,test,0,female,Latino,,,,new,,,,z,1169,False,False,
3,1,86,test,0,male,Asian,,,,old,happy,female,,m,918,False,False,
3,1,87,test,0,male,Black,,,,new,,,,m,1130,True,False,
3,1,88,test,0,female,White,,,,old,neutral,female,,z,1377,True,False,
3,1,89,test,0,male,White,,,,old,neutral,male,,m,924,False,False,
3,1,90,test,0,female,Black,,,,new,,,,m,1349,True,False,
3,1,91,test,0,female,White,,,,new,,,,m,1671,True,False,
3,1,92,test,0,female,Black,,,,old,happy,female,,z,668,True,False,
3,1,93,test,0,female,Black,,,,old,angry,male,,m,898,False,False,
3,1,94,test,0,female,Asian,,,,new,,,,m,1760,True,False,
3,1,95,test,0,male,White,,,,new,,,,m,1586,True,False,
3,1,96,test,0,male,Black,,,,old,angry,male,,z,1470,True,False,
3,1,97,test,0,female,Asian,,,,new,,,,m,1379,True,False,
3,1,98,test,0,male,Black,,,,old,neutral,female,,z,1508,True,False,
3,1,99,test,0,female,Black,,,,new,,,,m,1075,True,False,
3,1,100,test,0,female,White,,,,new,,,,m,882,True,False,
3,1,101,test,1,female,Black,,,,old,neutral,male,,z,1285,True,False,
3,1,102,test,1,female,White,,,,new,,,,m,1010,True,False,
3,1,103,test,1,male,Black,,,,old,happy,male,,z,892,True,False,
3,1,104,test,1,male,White,,,,new,,,,z,1071,False,False,
3,1,105,test,1,male,Asian,,,,old,neutral,female,,z,1282,True,False,
3,1,106,test,1,female,White,,,,new,,,,m,784,True,False,
3,1,107,test,1,male,Black,,,,new,,,,m,1016,True,False,
3,1,108,test,1,female,White,,,,old,happy,male,,z,1133,True,False,
3,1,109,test,1,female,Latino,,,,old,happy,female,,z,877,True,False,
3,1,110,test,1,female,White,,,,new,,,,m,894,True,False,
3,1,111,test,1,male,Black,,,,old,angry,male,,m,993,False,False,
3,1,112,test,1,male,Black,,,,old,happy,male,,z,751,True,False,
3,1,113,test,1,female,White,,,,old,angry,female,,m,967,False,False,
3,1,114,test,1,female,Asian,,,,old,angry,male,,z,1122,True,False,
3,1,115,test,1,male,Black,,,,new,,,,m,1163,True,False,
3,1,116,test,1,male,Latino,,,,old,angry,male,,m,1034,False,False,
3,1,117,test,1,male,White,,,,new,,,,m,2157,True,False,
3,1,118,test,1,male,Latino,,,,new,,,,m,1299,True,False,
3,1,119,test,1,female,Asian,,,,old,angry,female,,z,635,True,False,
3,1,120,test,1,female,Latino,,,,old,happy,female,,m,987,False,False,
3,1,121,test,1,female,Latino,,,,new,,,,m,1172,True,False,
3,1,122,test,1,female,Black,,,,old,neutral,female,,z,875,True,False,
3,1,123,test,1,male,White,,,,new,,,,m,1133,True,False,
3,1,124,test,1,male,Latino,,,,new,,,,m,1039,True,False,
3,1,125,test,1,female,White,,,,new,,,,m,931,True,False,
3,1,126,test,1,female,Asian,,,,old,angry,female,,z,617,True,False,
3,1,127,test,1,male,Asian,,,,new,,,,m,953,True,False,
3,1,128,test,1,male,Black,,,,new,,,,m,992,True,False,
3,1,129,test,1,male,Black,,,,new,,,,m,1047,True,False,
3,1,130,test,1,male,Black,,,,new,,,,m,1055,True,False,
3,1,131,test,1,female,Black,,,,new,,,,z,1748,False,False,
3,1,132,test,1,female,White,,,,old,happy,female,,m,731,False,False,
3,1,133,test,1,male,Black,,,,old,happy,female,,m,1674,False,False,
3,1,134,test,1,male,White,,,,new,,,,m,1498,True,False,
3,1,135,test,1,female,Latino,,,,new,,,,z,1969,False,False,
3,1,136,test,1,female,Black,,,,old,neutral,male,,z,1296,True,False,
3,1,137,test,1,female,Black,,,,old,neutral,male,,m,1069,False,False,
3,1,138,test,1,female,Black,,,,new,,,,z,1275,False,False,
3,1,139,test,1,male,Asian,,,,old,angry,female,,z,1429,True,False,
3,1,140,test,1,male,White,,,,new,,,,z,1421,False,False,
3,1,141,test,2,female,Latino,,,,old,neutral,male,,m,1023,False,False,
3,1,142,test,2,female,Black,,,,old,angry,male,,z,716,True,False,
3,1,143,test,2,male,Latino,,,,old,happy,male,,m,899,False,False,
3,1,144,test,2,male,Asian,,,,new,,,,m,1195,True,False,
3,1,145,test,2,female,White,,,,old,happy,female,,z,987,True,False,
3,1,146,test,2,male,Black,,,,old,angry,female,,m,752,False,False,
3,1,147,test,2,female,White,,,,new,,,,m,1050,True,False,
3,1,148,test,2,male,White,,,,old,angry,male,,m,845,False,False,
3,1,149,test,2,female,Black,,,,new,,,,m,1174,True,False,
3,1,150,test,2,male,White,,,,new,,,,m,1201,True,False,
3,1,151,test,2,male,White,,,,new,,,,z,1160,False,False,
3,1,152,test,2,male,Black,,,,new,,,,m,1152,True,False,
3,1,153,test,2,male,Asian,,,,new,,,,m,1117,True,False,
3,1,154,test,2,male,Latino,,,,new,,,,m,1374,True,False,
3,1,155,test,2,female,Black,,,,old,happy,male,,z,626,True,False,
3,1,156,test,2,female,Asian,,,,new,,,,m,1301,True,False,
3,1,157,test,2,male,White,,,,new,,,,m,1039,True,False,
3,1,158,test,2,female,White,,,,new,,,,m,1114,True,False,
3,1,159,test,2,male,Black,,,,old,happy,female,,m,747,False,False,
3,1,160,test,2,male,White,,,,new,,,,z,1249,False,False,
3,1,161,test,2,female,Black,,,,new,,,,z,1414,False,False,
3,1,162,test,2,female,Black,,,,old,angry,female,,m,942,False,False,
3,1,163,test,2,female,White,,,,old,happy,male,,z,938,True,False,
3,1,164,test,2,male,Black,,,,old,happy,male,,m,936,False,False,
3,1,165,test,2,female,Black,,,,new,,,,z,1429,False,False,
3,1,166,test,2,female,White,,,,new,,,,m,1738,True,False,
3,1,167,test,2,male,Asian,,,,old,neutral,male,,m,1073,False,False,
3,1,168,test,2,male,Asian,,,,old,neutral,female,,m,1108,False,False,
3,1,169,test,2,female,Latino,,,,old,angry,female,,m,763,False,False,
3,1,170,test,2,male,White,,,,old,angry,female,,m,1283,False,False,
3,1,171,test,2,female,Black,,,,new,,,,m,1363,True,False,
3,1,172,test,2,female,Latino,,,,old,neutral,female,,m,931,False,False,
3,1,173,test,2,female,Asian,,,,new,,,,z,857,False,False,
3,1,174,test,2,male,Asian,,,,new,,,,m,1203,True,False,
3,1,175,test,2,male,Black,,,,new,,,,m,1246,True,False,
3,1,176,test,2,female,Asian,,,,new,,,,z,1357,False,False,
3,1,177,test,2,male,Black,,,,old,neutral,male,,m,1176,False,False,
3,1,178,test,2,female,Asian,,,,new,,,,m,1440,True,False,
3,1,179,test,2,female,White,,,,old,neutral,female,,z,1087,True,False,
3,1,180,test,2,female,Asian,,,,new,,,,m,1264,True,False,
4,1,1,study,0,female,Black,male,Black,happy,,,,,m,1203,False,False,
4,1,2,study,0,male,Asian,female,Black,angry,,,,,z,1118,False,False,
4,1,3,study,0,female,Latino,male,Black,angry,,,,,z,1142,True,False,
4,1,4,study,0,male,White,male,Black,happy,,,,,m,1281,True,False,
4,1,5,study,0,male,Black,female,Black,neutral,,,,,m,883,True,False,
4,1,6,study,0,male,White,female,White,happy,,,,,m,1346,True,False,
4,1,7,study,0,female,Black,female,Black,angry,,,,,z,1167,True,False,
4,1,8,study,0,female,Asian,male,Black,angry,,,,,z,1947,True,False,
4,1,9,study,0,male,White,male,White,angry,,,,,z,1127,False,False,
4,1,10,study,0,female,Asian,female,Black,angry,,,,,z,959,True,False,
4,1,11,study,0,female,White,male,Black,neutral,,,,,z,1345,True,False,
4,1,12,study,0,female,Asian,female,White,angry,,,,,z,980,True,False,
4,1,13,study,0,female,Asian,male,Black,neutral,,,,,z,906,True,False,
4,1,14,study,0,female,Black,male,Black,angry,,,,,z,718,True,False,
4,1,15,study,0,male,Black,male,White,neutral,,,,,z,936,False,False,
4,1,16,study,0,female,White,female,White,angry,,,,,z,981,True,False,
4,1,17,study,0,male,Latino,male,Black,angry,,,,,m,1331,True,False,
4,1,18,study,0,female,Asian,male,White,happy,,,,,z,620,True,False,
4,1,19,study,0,male,Asian,male,White,angry,,,,,m,1900,True,False,
4,1,20,study,0,female,Asian,male,White,happy,,,,,z,1291,True,False,
4,1,21,study,0,female,Black,female,White,happy,,,,,z,993,True,False,
4,1,22,study,0,male,Asian,female,Black,neutral,,,,,m,1300,True,False,
4,1,23,study,0,female,Black,female,White,neutral,,,,,z,1301,True,False,
4,1,24,study,0,female,Latino,male,Black,angry,,,,,z,656,True,False,
4,1,25,study,0,male,White,female,White,happy,,,,,m,1117,True,False,
4,1,26,study,0,male,Latino,female,White,neutral,,,,,m,1006,True,False,
4,1,27,study,0,male,Black,male,White,happy,,,,,m,1693,True,False,
4,1,28,study,0,male,White,male,Black,neutral,,,,,m,830,True,False,
4,1,29,study,0,male,Black,male,White,neutral,,,,,m,563,True,False,
4,1,30,study,0,male,Latino,female,Black,angry,,,,,m,1320,True,False,
4,1,31,study,1,female,Black,female,Black,neutral,,,,,z,1648,True,False,
4,1,32,study,1,female,Asian,female,Black,happy,,,,,z,1965,True,False,
4,1,33,study,1,female,Black,male,Black,neutral,,,,,z,1483,True,False,
4,1,34,study,1,male,White,male,Black,angry,,,,,m,1414,True,False,
4,1,35,study,1,female,White,male,Black,happy,,,,,z,1023,True,False,
4,1,36,study,1,male,White,male,White,happy,,,,,z,1347,False,False,
4,1,37,study,1,male,Asian,male,White,neutral,,,,,m,1657,True,False,
4,1,38,study,1,male,Black,female,White,neutral,,,,,m,974,True,False,
4,1,39,study,1,female,White,female,Black,neutral,,,,,,,False,True,
4,1,40,study,1,male,White,female,Black,angry,,,,,m,1112,True,False,
4,1,41,study,1,male,Asian,female,Black,neutral,,,,,m,645,True,False,
4,1,42,study,1,male,Black,male,Black,happy,,,,,m,831,True,False,
4,1,43,study,1,female,White,female,Black,neutral,,,,,z,798,True,False,
4,1,44,study,1,female,Latino,female,Black,happy,,,,,z,876,True,False,
4,1,45,study,1,male,Latino,female,White,angry,,,,,m,2358,True,False,
4,1,46,study,1,female,Black,male,White,happy,,,,,z,1314,True,False,
4,1,47,study,1,female,Black,female,Black,neutral,,,,,z,1032,True,False,
4,1,48,study,1,female,White,male,White,neutral,,,,,z,926,True,False,
4,1,49,study,1,female,Black,male,White,angry,,,,,z,935,True,False,
4,1,50,study,1,female,White,female,White,angry,,,,,z,827,True,False,
4,1,51,study,1,male,White,female,White,happy,,,,,z,691,False,False,
4,1,52,study,1,female,Latino,female,White,happy,,,,,z,1136,True,False,
4,1,53,study,1,female,Latino,female,Black,happy,,,,,z,873,True,False,
4,1,54,study,1,male,White,male,Black,angry,,,,,m,1272,True,False,
4,1,55,study,1,male,Black,male,White,neutral,,,,,m,1282,True,False,
4,1,56,study,1,male,White,female,Black,happy,,,,,m,1090,True,False,
4,1,57,study,1,female,Black,male,White,neutral,,,,,z,770,True,False,
4,1,58,study,1,male,Black,female,Black,happy,,,,,z,2356,False,False,
4,1,59,study,1,male,White,female,White,angry,,,,,m,1222,True,False,
4,1,60,study,1,male,Black,male,Black,happy,,,,,m,1108,True,False,
4,1,61,test,0,female,White,,,,old,angry,female,,z,842,True,False,
4,1,62,test,0,female,Asian,,,,new,,,,m,1054,True,False,
4,1,63,test,0,female,Black,,,,new,,,,z,1331,False,False,
4,1,64,test,0,male,Black,,,,old,happy,male,,z,999,True,False,
4,1,65,test,0,male,Latino,,,,old,angry,female,,m,1009,False,False,
4,1,66,test,0,female,White,,,,old,angry,female,,z,1068,True,False,
4,1,67,test,0,female,Latino,,,,new,,,,m,913,True,False,
4,1,68,test,0,female,Black,,,,old,happy,female,,z,973,True,False,
4,1,69,test,0,male,Black,,,,old,happy,male,,z,774,True,False,
4,1,70,test,0,male,Black,,,,old,happy,male,,z,1625,True,False,
4,1,71,test,0,male,Latino,,,,new,,,,z,842,False,False,
4,1,72,test,0,male,White,,,,old,happy,male,,m,2500,False,False,
4,1,73,test,0,male,White,,,,old,angry,female,,z,1405,True,False,
4,1,74,test,0,female,Asian,,,,new,,,,m,1609,True,False,
4,1,75,test,0,male,Asian,,,,new,,,,m,1085,True,False,
4,1,76,test,0,male,Latino,,,,new,,,,m,1186,True,False,
4,1,77,test,0,male,White,,,,new,,,,m,1575,True,False,
4,1,78,test,0,male,Asian,,,,old,angry,male,,z,843,True,False,
4,1,79,test,0,female,Black,,,,new,,,,z,1544,False,False,
4,1,80,test,0,male,Black,,,,new,,,,m,1552,True,False,
4,1,81,test,0,male,Asian,,,,old,neutral,female,,m,1350,False,False,
4,1,82,test,0,male,Latino,,,,old,angry,male,,z,528,True,False,
4,1,83,test,0,male,Black,,,,new,,,,m,1955,True,False,
4,1,84,test,0,female,Black,,,,old,happy,male,,m,730,False,False,
4,1,85,test,0,female,Black,,,,old,neutral,female,,m,977,False,False,
4,1,86,test,0,male,Asian,,,,new,,,,m,836,True,False,
4,1,87,test,0,female,Latino,,,,new,,,,,,False,True,
4,1,88,test,0,female,Asian,,,,old,angry,female,,m,728,False,False,
4,1,89,test,0,female,White,,,,new,,,,,,False,True,
4,1,90,test,0,male,Asian,,,,old,neutral,female,,z,1913,True,False,
4,1,91,test,0,female,White,,,,old,happy,male,,m,830,False,False,
4,1,92,test,0,male,Asian,,,,old,neutral,male,,m,1106,False,False,
4,1,93,test,0,male,Asian,,,,new,,,,m,1304,True,False,
4,1,94,test,0,male,Black,,,,old,neutral,female,,m,645,False,False,
4,1,95,test,0,female,Black,,,,new,,,,m,824,True,False,
4,1,96,test,0,male,White,,,,new,,,,m,1042,True,False,
4,1,97,test,0,female,White,,,,old,neutral,male,,m,1007,False,False,
4,1,98,test,0,female,Black,,,,new,,,,m,1494,True,False,
4,1,99,test,0,male,Latino,,,,new,,,,m,1457,True,False,
4,1,100,test,0,female,Latino,,,,new,,,,m,722,True,False,
4,1,101,test,1,male,White,,,,old,angry,female,,z,1204,True,False,
4,1,102,test,1,male,White,,,,old,happy,female,,m,1015,False,False,
4,1,103,test,1,male,White,,,,old,angry,male,,z,803,True,False,
4,1,104,test,1,female,Latino,,,,new,,,,m,772,True,False,
4,1,105,test,1,female,White,,,,new,,,,m,878,True,False,
4,1,106,test,1,male,White,,,,old,angry,male,,z,1447,True,False,
4,1,107,test,1,male,Latino,,,,new,,,,m,801,True,False,
4,1,108,test,1,male,White,,,,old,neutral,male,,,,False,True,
4,1,109,test,1,female,Asian,,,,old,happy,male,,,,False,True,
4,1,110,test,1,male,Black,,,,new,,,,,,False,True,
4,1,111,test,1,male,White,,,,new,,,,,,False,True,
4,1,112,test,1,female,Asian,,,,new,,,,,,False,True,
4,1,113,test,1,male,White,,,,old,happy,female,,z,1632,True,False,
4,1,114,test,1,female,Latino,,,,new,,,,m,1165,True,False,
4,1,115,test,1,female,Asian,,,,old,happy,male,,m,1034,False,False,
4,1,116,test,1,female,Asian,,,,new,,,,m,168,True,False,
4,1,117,test,1,female,Asian,,,,old,happy,female,,m,438,False,False,
4,1,118,test,1,male,Asian,,,,new,,,,m,1052,True,False,
4,1,119,test,1,male,White,,,,new,,,,m,346,True,False,
4,1,120,test,1,female,White,,,,new,,,,m,87,True,False,
4,1,121,test,1,female,White,,,,new,,,,m,412,True,False,
4,1,122,test,1,male,Asian,,,,new,,,,,,False,True,
4,1,123,test,1,female,White,,,,new,,,,m,271,True,False,
4,1,124,test,1,female,White,,,,new,,,,m,1884,True,False,
4,1,125,test,1,female,Black,,,,old,neutral,female,,m,1249,False,False,
4,1,126,test,1,female,Asian,,,,new,,,,m,2914,True,False,
4,1,127,test,1,male,White,,,,new,,,,m,1901,True,False,
4,1,128,test,1,male,White,,,,new,,,,,,False,True,
4,1,129,test,1,female,Black,,,,old,neutral,male,,,,False,True,
4,1,130,test,1,female,Latino,,,,old,happy,female,,,,False,True,
4,1,131,test,1,male,Latino,,,,new,,,,m,2944,True,False,
4,1,132,test,1,male,Latino,,,,old,neutral,female,,m,361,False,False,
4,1,133,test,1,female,Latino,,,,old,happy,female,,m,1808,False,False,
4,1,134,test,1,female,Asian,,,,new,,,,z,432,False,False,
4,1,135,test,1,female,Latino,,,,old,happy,female,,z,837,True,False,
4,1,136,test,1,female,Black,,,,old,neutral,male,,m,749,False,False,
4,1,137,test,1,female,White,,,,new,,,,m,383,True,False,
4,1,138,test,1,male,White,,,,old,happy,male,,m,481,False,False,
4,1,139,test,1,female,White,,,,old,neutral,female,,m,526,False,False,
4,1,140,test,1,male,Black,,,,new,,,,z,623,False,False,
4,1,141,test,2,male,Black,,,,old,happy,female,,z,518,True,False,
4,1,142,test,2,female,Black,,,,new,,,,m,302,True,False,
4,1,143,test,2,female,Black,,,,old,happy,male,,m,1071,False,False,
4,1,144,test,2,male,Black,,,,old,neutral,male,,m,409,False,False,
4,1,145,test,2,female,Black,,,,old,angry,female,,m,74,False,False,
4,1,146,test,2,female,Black,,,,old,angry,male,,m,539,False,False,
4,1,147,test,2,male,Black,,,,old,neutral,female,,m,2624,False,False,
4,1,148,test,2,female,Latino,,,,new,,,,m,536,True,False,
4,1,149,test,2,female,Latino,,,,old,angry,male,,m,44,False,False,
4,1,150,test,2,male,White,,,,new,,,,m,1960,True,False,
4,1,151,test,2,male,Asian,,,,old,angry,female,,m,821,False,False,
4,1,152,test,2,female,White,,,,old,neutral,male,,m,984,False,False,
4,1,153,test,2,male,Black,,,,new,,,,m,806,True,False,
4,1,154,test,2,female,White,,,,old,neutral,female,,m,1490,False,False,
4,1,155,test,2,female,Black,,,,old,neutral,female,,m,375,False,False,
4,1,156,test,2,female,Latino,,,,old,angry,male,,z,289,True,False,
4,1,157,test,2,female,Black,,,,new,,,,m,735,True,False,
4,1,158,test,2,male,Black,,,,new,,,,m,750,True,False,
4,1,159,test,2,male,White,,,,old,angry,male,,m,18,False,False,
4,1,160,test,2,male,White,,,,old,happy,female,,z,661,True,False,
4,1,161,test,2,female,White,,,,new,,,,m,1158,True,False,
4,1,162,test,2,male,White,,,,new,,,,z,572,False,False,
4,1,163,test,2,male,White,,,,new,,,,m,564,True,False,
4,1,164,test,2,male,Latino,,,,old,angry,female,,z,502,True,False,
4,1,165,test,2,male,Black,,,,new,,,,m,772,True,False,
4,1,166,test,2,male,Asian,,,,new,,,,m,465,True,False,
4,1,167,test,2,male,Black,,,,old,neutral,male,,m,465,False,False,
4,1,168,test,2,male,White,,,,new,,,,z,889,False,False,
4,1,169,test,2,female,White,,,,new,,,,m,2777,True,False,
4,1,170,test,2,female,Latino,,,,new,,,,m,1632,True,False,
4,1,171,test,2,male,Asian,,,,new,,,,z,237,False,False,
4,1,172,test,2,male,Black,,,,new,,,,,,False,True,
4,1,173,test,2,male,White,,,,old,happy,female,,,,False,True,
4,1,174,test,2,female,Black,,,,new,,,,m,869,True,False,
4,1,175,test,2,female,Asian,,,,old,angry,female,,m,334,False,False,
4,1,176,test,2,female,Asian,,,,old,angry,male,,m,217,False,False,
4,1,177,test,2,female,Black,,,,old,angry,male,,z,263,True,False,
4,1,178,test,2,female,Asian,,,,old,neutral,male,,m,356,False,False,
4,1,179,test,2,female,Latino,,,,new,,,,z,327,False,False,
4,1,180,test,2,male,Black,,,,old,neutral,male,,m,146,False,False,
5,1,1,study,0,female,Asian,female,Black,happy,,,,,z,2667,True,False,
5,1,2,study,0,female,Asian,male,White,happy,,,,,,,False,True,
5,1,3,study,0,female,Black,male,Black,neutral,,,,,,,False,True,
5,1,4,study,0,male,White,male,Black,neutral,,,,,m,2242,True,False,
5,1,5,study,0,female,Black,female,Black,angry,,,,,z,1438,True,False,
5,1,6,study,0,male,Black,male,White,angry,,,,,m,1554,True,False,
5,1,7,study,0,female,Black,female,Black,angry,,,,,z,1385,True,False,
5,1,8,study,0,male,White,male,Black,neutral,,,,,m,2311,True,False,
5,1,9,study,0,female,Latino,female,Black,neutral,,,,,z,2000,True,False,
5,1,10,study,0,female,Black,female,White,happy,,,,,z,1396,True,False,
5,1,11,study,0,female,White,male,Black,happy,,,,,z,1289,True,False,
5,1,12,study,0,male,Black,male,White,angry,,,,,m,2083,True,False,
5,1,13,study,0,male,Black,female,Black,happy,,,,,m,2026,True,False,
5,1,14,study,0,male,Black,female,White,neutral,,,,,m,1907,True,False,
5,1,15,study,0,female,White,female,Black,neutral,,,,,z,1530,True,False,
5,1,16,study,0,female,Asian,male,White,happy,,,,,m,2645,False,False,
5,1,17,study,0,male,White,female,White,happy,,,,,,,False,True,
5,1,18,study,0,male,Black,male,White,angry,,,,,m,1101,True,False,
5,1,19,study,0,male,Latino,male,Black,happy,,,,,m,2884,True,False,
5,1,20,study,0,female,Black,female,White,angry,,,,,z,1199,True,False,
5,1,21,study,0,male,Black,female,Black,neutral,,,,,m,2063,True,False,
5,1,22,study,0,female,Asian,female,White,angry,,,,,z,1126,True,False,
5,1,23,study,0,female,White,female,White,happy,,,,,z,1166,True,False,
5,1,24,study,0,female,White,male,White,angry,,,,,m,2227,False,False,
5,1,25,study,0,male,Black,female,Black,neutral,,,,,m,1385,True,False,
5,1,26,study,0,male,White,female,White,angry,,,,,z,1334,False,False,
5,1,27,study,0,male,White,male,Black,neutral,,,,,m,1997,True,False,
5,1,28,study,0,female,Black,male,Black,angry,,,,,m,1833,False,False,
5,1,29,study,0,male,Latino,male,White,happy,,,,,m,1108,True,False,
5,1,30,study,0,male,Asian,female,White,happy,,,,,m,2265,True,False,
5,1,31,study,1,female,Latino,male,Black,happy,,,,,z,1198,True,False,
5,1,32,study,1,male,White,male,White,angry,,,,,m,1618,True,False,
5,1,33,study,1,male,Latino,male,Black,neutral,,,,,m,1220,True,False,
5,1,34,study,1,female,Black,female,White,happy,,,,,z,1385,True,False,
5,1,35,study,1,female,Black,female,Black,neutral,,,,,z,2308,True,False,
5,1,36,study,1,male,White,female,White,angry,,,,,m,2018,True,False,
5,1,37,study,1,male,Black,female,White,happy,,,,,m,1500,True,False,
5,1,38,study,1,male,Latino,female,Black,angry,,,,,m,1397,True,False,
5,1,39,study,1,female,Asian,male,Black,angry,,,,,z,2266,True,False,
5,1,40,study,1,male,White,male,Black,happy,,,,,m,2480,True,False,
5,1,41,study,1,female,Asian,male,Black,neutral,,,,,z,2266,True,False,
5,1,42,study,1,female,Black,male,Black,angry,,,,,z,1876,True,False,
5,1,43,study,1,male,Black,female,Black,neutral,,,,,m,1851,True,False,
5,1,44,study,1,male,White,male,Black,happy,,,,,m,1524,True,False,
5,1,45,study,1,female,White,male,Black,neutral,,,,,z,2318,True,False,
5,1,46,study,1,male,Latino,male,White,angry,,,,,m,1199,True,False,
5,1,47,study,1,male,Asian,female,White,angry,,,,,m,1681,True,False,
5,1,48,study,1,male,White,female,White,angry,,,,,m,2092,True,False,
5,1,49,study,1,female,Latino,male,White,neutral,,,,,z,2520,True,False,
5,1,50,study,1,male,Latino,male,Black,neutral,,,,,m,2585,True,False,
5,1,51,study,1,male,Latino,female,White,happy,,,,,m,1744,True,False,
5,1,52,study,1,female,Latino,female,Black,neutral,,,,,z,2623,True,False,
5,1,53,study,1,female,Latino,female,White,neutral,,,,,z,2006,True,False,
5,1,54,study,1,female,Latino,male,White,happy,,,,,z,2633,True,False,
5,1,55,study,1,female,Latino,female,Black,happy,,,,,z,1923,True,False,
5,1,56,study,1,female,White,male,White,neutral,,,,,z,1532,True,False,
5,1,57,study,1,male,Asian,male,White,happy,,,,,m,2682,True,False,
5,1,58,study,1,male,Asian,female,Black,neutral,,,,,m,1012,True,False,
5,1,59,study,1,female,White,female,Black,angry,,,,,,,False,True,
5,1,60,study,1,female,Black,male,White,angry,,,,,m,2941,False,False,
5,1,61,test,0,female,Latino,,,,old,neutral,male,,z,1594,True,False,
5,1,62,test,0,male,Asian,,,,old,neutral,female,,m,2084,False,False,
5,1,63,test,0,female,Black,,,,old,angry,female,,m,1591,False,False,
5,1,64,test,0,female,Black,,,,new,,,,m,1723,True,False,
5,1,65,test,0,male,Black,,,,new,,,,m,1208,True,False,
5,1,66,test,0,male,Latino,,,,old,angry,male,,z,1500,True,False,
5,1,67,test,0,male,Latino,,,,new,,,,m,1345,True,False,
5,1,68,test,0,female,White,,,,old,happy,female,,m,1654,False,False,
5,1,69,test,0,female,White,,,,old,neutral,male,,m,1212,False,False,
5,1,70,test,0,female,Asian,,,,old,angry,female,,z,1898,True,False,
5,1,71,test,0,female,Asian,,,,old,happy,male,,z,1460,True,False,
5,1,72,test,0,male,White,,,,new,,,,m,1478,True,False,
5,1,73,test,0,male,White,,,,old,angry,female,,m,1232,False,False,
5,1,74,test,0,female,White,,,,old,angry,female,,z,1302,True,False,
5,1,75,test,0,female,Black,,,,old,angry,female,,m,1885,False,False,
5,1,76,test,0,male,Black,,,,old,happy,female,,m,1004,False,False,
5,1,77,test,0,male,White,,,,old,angry,male,,m,2497,False,False,
5,1,78,test,0,male,Asian,,,,old,happy,male,,m,979,False,False,
5,1,79,test,0,male,White,,,,old,neutral,male,,z,925,True,False,
5,1,80,test,0,female,Black,,,,old,angry,male,,m,1231,False,False,
5,1,81,test,0,male,Black,,,,old,neutral,female,,m,1207,False,False,
5,1,82,test,0,male,Black,,,,old,angry,male,,m,1041,False,False,
5,1,83,test,0,male,Black,,,,old,angry,male,,m,956,False,False,
5,1,84,test,0,male,Latino,,,,old,happy,male,,m,849,False,False,
5,1,85,test,0,female,Latino,,,,old,neutral,female,,m,2525,False,False,
5,1,86,test,0,female,Latino,,,,new,,,,z,1648,False,False,
5,1,87,test,0,male,White,,,,old,happy,male,,m,2565,False,False,
5,1,88,test,0,male,Asian,,,,new,,,,z,1031,False,False,
5,1,89,test,0,female,Asian,,,,new,,,,z,930,False,False,
5,1,90,test,0,female,Latino,,,,new,,,,m,976,True,False,
5,1,91,test,0,female,Latino,,,,new,,,,m,2006,True,False,
5,1,92,test,0,male,White,,,,old,happy,male,,,,False,True,
5,1,93,test,0,female,White,,,,new,,,,z,47,False,False,
5,1,94,test,0,male,White,,,,new,,,,z,1339,False,False,
5,1,95,test,0,male,Latino,,,,old,neutral,male,,z,1581,True,False,
5,1,96,test,0,female,Black,,,,new,,,,z,1323,False,False,
5,1,97,test,0,male,White,,,,old,neutral,male,,z,1082,True,False,
5,1,98,test,0,female,Black,,,,new,,,,z,1015,False,False,
5,1,99,test,0,male,Black,,,,new,,,,z,812,False,False,
5,1,100,test,0,female,Latino,,,,old,happy,male,,z,2641,True,False,
5,1,101,test,1,female,Asian,,,,old,neutral,male,,m,1873,False,False,
5,1,102,test,1,male,Latino,,,,new,,,,m,806,True,False,
5,1,103,test,1,male,White,,,,old,happy,female,,m,1297,False,False,
5,1,104,test,1,male,Black,,,,new,,,,z,1116,False,False,
5,1,105,test,1,male,Black,,,,old,angry,male,,z,876,True,False,
5,1,106,test,1,female,Asian,,,,new,,,,z,499,False,False,
5,1,107,test,1,male,Latino,,,,new,,,,m,768,True,False,
5,1,108,test,1,male,Black,,,,new,,,,m,731,True,False,
5,1,109,test,1,female,Asian,,,,new,,,,m,723,True,False,
5,1,110,test,1,female,Latino,,,,old,happy,male,,z,1036,True,False,
5,1,111,test,1,female,White,,,,new,,,,z,429,False,False,
5,1,112,test,1,male,White,,,,new,,,,z,2851,False,False,
5,1,113,test,1,male,Latino,,,,new,,,,z,2080,False,False,
5,1,114,test,1,female,Black,,,,old,angry,male,,z,1163,True,False,
5,1,115,test,1,female,Asian,,,,new,,,,m,719,True,False,
5,1,116,test,1,male,Asian,,,,new,,,,m,856,True,False,
5,1,117,test,1,female,Asian,,,,old,happy,male,,m,1206,False,False,
5,1,118,test,1,male,White,,,,old,angry,female,,m,203,False,False,
5,1,119,test,1,female,Asian,,,,new,,,,m,942,True,False,
5,1,120,test,1,male,Latino,,,,old,angry,female,,m,995,False,False,
5,1,121,test,1,male,White,,,,new,,,,z,839,False,False,
5,1,122,test,1,male,White,,,,old,neutral,male,,m,756,False,False,
5,1,123,test,1,female,Black,,,,old,happy,female,,m,697,False,False,
5,1,124,test,1,female,Black,,,,new,,,,m,1061,True,False,
5,1,125,test,1,female,White,,,,new,,,,m,1708,True,False,
5,1,126,test,1,female,White,,,,new,,,,m,674,True,False,
5,1,127,test,1,female,Black,,,,new,,,,m,811,True,False,
5,1,128,test,1,female,Asian,,,,new,,,,m,1594,True,False,
5,1,129,test,1,male,Asian,,,,new,,,,,,False,True,
5,1,130,test,1,female,Black,,,,old,neutral,female,,m,1301,False,False,
5,1,131,test,1,female,Asian,,,,old,angry,male,,m,226,False,False,
5,1,132,test,1,male,Latino,,,,old,happy,female,,m,720,False,False,
5,1,133,test,1,female,Black,,,,old,happy,female,,m,768,False,False,
5,1,134,test,1,male,Asian,,,,new,,,,,,False,True,
5,1,135,test,1,male,White,,,,old,angry,female,,m,582,False,False,
5,1,136,test,1,male,White,,,,new,,,,m,290,True,False,
5,1,137,test,1,male,Asian,,,,old,angry,female,,m,970,False,False,
5,1,138,test,1,male,White,,,,new,,,,m,2094,True,False,
5,1,139,test,1,male,White,,,,new,,,,m,1102,True,False,
5,1,140,test,1,female,White,,,,new,,,,z,1213,False,False,
5,1,141,test,2,female,Asian,,,,new,,,,m,932,True,False,
5,1,142,test,2,female,Black,,,,old,neutral,male,,z,812,True,False,
5,1,143,test,2,male,White,,,,new,,,,m,816,True,False,
5,1,144,test,2,male,Black,,,,old,neutral,female,,z,2015,True,False,
5,1,145,test,2,male,White,,,,new,,,,m,781,True,False,
5,1,146,test,2,female,Latino,,,,new,,,,m,251,True,False,
5,1,147,test,2,female,Latino,,,,old,happy,female,,m,157,False,False,
5,1,148,test,2,female,White,,,,new,,,,m,420,True,False,
5,1,149,test,2,female,Asian,,,,new,,,,m,863,True,False,
5,1,150,test,2,male,Asian,,,,new,,,,m,575,True,False,
5,1,151,test,2,female,Black,,,,old,angry,female,,m,235,False,False,
5,1,152,test,2,male,Asian,,,,new,,,,m,744,True,False,
5,1,153,test,2,female,White,,,,old,neutral,female,,z,747,True,False,
5,1,154,test,2,female,Asian,,,,old,happy,female,,m,928,False,False,
5,1,155,test,2,male,Black,,,,old,neutral,female,,m,704,False,False,
5,1,156,test,2,male,Latino,,,,new,,,,m,875,True,False,
5,1,157,test,2,male,Black,,,,new,,,,m,893,True,False,
5,1,158,test,2,female,Black,,,,new,,,,m,881,True,False,
5,1,159,test,2,female,Latino,,,,old,neutral,female,,m,1195,False,False,
5,1,160,test,2,female,Latino,,,,new,,,,m,1096,True,False,
5,1,161,test,2,male,White,,,,new,,,,m,874,True,False,
5,1,162,test,2,female,Asian,,,,new,,,,z,1470,False,False,
5,1,163,test,2,male,Latino,,,,new,,,,z,810,False,False,
5,1,164,test,2,male,Black,,,,old,neutral,female,,z,862,True,False,
5,1,165,test,2,female,Latino,,,,old,neutral,female,,m,1060,False,False,
5,1,166,test,2,male,Black,,,,new,,,,m,151,True,False,
5,1,167,test,2,female,Black,,,,new,,,,m,753,True,False,
5,1,168,test,2,male,White,,,,new,,,,m,729,True,False,
5,1,169,test,2,male,Asian,,,,old,happy,female,,m,1027,False,False,
5,1,170,test,2,female,White,,,,old,happy,male,,m,797,False,False,
5,1,171,test,2,female,White,,,,old,angry,male,,m,805,False,False,
5,1,172,test,2,male,Latino,,,,old,happy,male,,z,912,True,False,
5,1,173,test,2,male,Black,,,,old,happy,female,,z,1161,True,False,
5,1,174,test,2,female,White,,,,new,,,,z,797,False,False,
5,1,175,test,2,male,Latino,,,,old,neutral,male,,z,678,True,False,
5,1,176,test,2,male,White,,,,new,,,,z,1043,False,False,
5,1,177,test,2,female,White,,,,new,,,,z,741,False,False,
5,1,178,test,2,female,White,,,,old,neutral,male,,m,756,False,False,
5,1,179,test,2,female,Latino,,,,new,,,,z,719,False,False,
5,1,180,test,2,female,Black,,,,old,angry,male,,z,879,True,False,
6,1,1,study,0,male,Black,male,White,neutral,,,,,m,855,True,False,
6,1,2,study,0,female,Black,female,Black,angry,,,,,z,1071,True,False,
6,1,3,study,0,female,Latino,female,White,angry,,,,,z,1479,True,False,
6,1,4,study,0,male,White,male,Black,angry,,,,,m,1207,True,False,
6,1,5,study,0,male,White,female,Black,angry,,,,,,,False,True,
6,1,6,study,0,female,White,male,White,neutral,,,,,m,1592,False,False,
6,1,7,study,0,female,Black,male,White,happy,,,,,m,1646,False,False,
6,1,8,study,0,female,Latino,male,White,angry,,,,,,,False,True,
6,1,9,study,0,female,Black,male,White,angry,,,,,m,941,False,False,
6,1,10,study,0,male,Latino,female,White,neutral,,,,,z,2509,False,False,
6,1,11,study,0,female,Black,female,White,neutral,,,,,z,1234,True,False,
6,1,12,study,0,female,White,male,Black,angry,,,,,m,2088,False,False,
6,1,13,study,0,male,White,male,Black,neutral,,,,,z,924,False,False,
6,1,14,study,0,male,White,male,White,angry,,,,,m,1141,True,False,
6,1,15,study,0,male,White,male,Black,happy,,,,,m,932,True,False,
6,1,16,study,0,male,Asian,male,Black,happy,,,,,m,835,True,False,
6,1,17,study,0,male,Latino,male,Black,neutral,,,,,m,871,True,False,
6,1,18,study,0,female,Asian,female,White,neutral,,,,,,,False,True,
6,1,19,study,0,female,Latino,male,Black,happy,,,,,m,2161,False,False,
6,1,20,study,0,male,Black,female,White,angry,,,,,,,False,True,
6,1,21,study,0,male,Asian,female,White,happy,,,,,z,2483,False,False,
6,1,22,study,0,female,White,female,Black,neutral,,,,,z,1015,True,False,
6,1,23,study,0,female,Asian,female,White,angry,,,,,z,1282,True,False,
6,1,24,study,0,female,White,male,White,happy,,,,,m,1327,False,False,
6,1,25,study,0,female,White,male,White,happy,,,,,m,824,False,False,
6,1,26,study,0,female,Black,female,White,neutral,,,,,z,855,True,False,
6,1,27,study,0,male,Latino,female,White,neutral,,,,,z,2168,False,False,
6,1,28,study,0,female,Asian,female,White,happy,,,,,z,1139,True,False,
6,1,29,study,0,male,Black,male,Black,angry,,,,,m,1874,True,False,
6,1,30,study,0,female,Black,female,Black,neutral,,,,,z,1363,True,False,
6,1,31,study,1,female,Black,female,Black,happy,,,,,z,946,True,False,
6,1,32,study,1,male,Black,male,Black,happy,,,,,m,489,True,False,
6,1,33,study,1,female,White,male,Black,neutral,,,,,z,887,True,False,
6,1,34,study,1,female,Asian,male,Black,happy,,,,,m,1005,False,False,
6,1,35,study,1,male,White,male,Black,happy,,,,,m,1420,True,False,
6,1,36,study,1,male,White,male,White,neutral,,,,,m,1297,True,False,
6,1,37,study,1,female,Asian,female,Black,happy,,,,,z,1206,True,False,
6,1,38,study,1,female,Latino,male,White,neutral,,,,,z,2092,True,False,
6,1,39,study,1,male,Black,female,Black,angry,,,,,z,1265,False,False,
6,1,40,study,1,male,Latino,female,White,neutral,,,,,z,734,False,False,
6,1,41,study,1,female,Asian,male,White,neutral,,,,,m,1756,False,False,
6,1,42,study,1,female,Black,female,Black,happy,,,,,z,1643,True,False,
6,1,43,study,1,male,Latino,male,Black,angry,,,,,m,782,True,False,
6,1,44,study,1,male,White,male,Black,happy,,,,,m,638,True,False,
6,1,45,study,1,male,White,male,Black,angry,,,,,m,793,True,False,
6,1,46,study,1,female,Black,male,Black,neutral,,,,,m,1496,False,False,
6,1,47,study,1,female,White,female,Black,angry,,,,,z,1923,True,False,
6,1,48,study,1,male,Black,female,Black,angry,,,,,z,2415,False,False,
6,1,49,study,1,male,White,female,Black,happy,,,,,z,2387,False,False,
6,1,50,study,1,male,Black,female,Black,neutral,,,,,,,False,True,
6,1,51,study,1,male,White,female,Black,happy,,,,,z,2409,False,False,
6,1,52,study,1,female,Asian,male,White,angry,,,,,m,660,False,False,
6,1,53,study,1,male,Asian,female,Black,happy,,,,,z,1172,False,False,
6,1,54,study,1,female,White,female,Black,angry,,,,,z,1299,True,False,
6,1,55,study,1,male,Black,female,Black,happy,,,,,z,960,False,False,
6,1,56,study,1,male,Black,female,White,angry,,,,,z,775,False,False,
6,1,57,study,1,male,White,male,Black,neutral,,,,,m,697,True,False,
6,1,58,study,1,male,Latino,female,White,neutral,,,,,z,943,False,False,
6,1,59,study,1,female,Asian,male,White,angry,,,,,m,869,False,False,
6,1,60,study,1,female,Black,female,Black,happy,,,,,z,972,True,False,
6,1,61,test,0,male,Black,,,,new,,,,m,1211,True,False,
6,1,62,test,0,male,White,,,,old,angry,male,,z,851,True,False,
6,1,63,test,0,female,Black,,,,new,,,,z,600,False,False,
6,1,64,test,0,female,Asian,,,,old,angry,male,,m,1194,False,False,
6,1,65,test,0,male,Latino,,,,old,angry,male,,z,810,True,False,
6,1,66,test,0,female,Black,,,,old,neutral,female,,z,1009,True,False,
6,1,67,test,0,female,Black,,,,old,angry,male,,m,1243,False,False,
6,1,68,test,0,male,Latino,,,,new,,,,z,1315,False,False,
6,1,69,test,0,female,Black,,,,new,,,,m,1745,True,False,
6,1,70,test,0,male,Latino,,,,new,,,,z,1024,False,False,
6,1,71,test,0,male,White,,,,old,angry,male,,z,731,True,False,
6,1,72,test,0,male,Black,,,,old,angry,female,,m,1783,False,False,
6,1,73,test,0,female,Black,,,,old,happy,female,,z,1288,True,False,
6,1,74,test,0,male,White,,,,old,happy,male,,z,943,True,False,
6,1,75,test,0,male,Latino,,,,old,neutral,male,,m,846,False,False,
6,1,76,test,0,female,Asian,,,,old,angry,female,,m,1337,False,False,
6,1,77,test,0,female,Latino,,,,new,,,,m,1395,True,False,
6,1,78,test,0,female,White,,,,new,,,,z,921,False,False,
6,1,79,test,0,female,White,,,,old,neutral,male,,m,920,False,False,
6,1,80,test,0,male,Black,,,,new,,,,z,1445,False,False,
6,1,81,test,0,female,Latino,,,,old,happy,male,,z,1355,True,False,
6,1,82,test,0,female,Asian,,,,old,happy,male,,m,1756,False,False,
6,1,83,test,0,male,White,,,,new,,,,m,1285,True,False,
6,1,84,test,0,female,Black,,,,old,neutral,male,,z,1257,True,False,
6,1,85,test,0,female,White,,,,new,,,,m,1078,True,False,
6,1,86,test,0,female,Asian,,,,old,happy,female,,z,1711,True,False,
6,1,87,test,0,female,White,,,,new,,,,m,864,True,False,
6,1,88,test,0,male,Black,,,,old,happy,female,,m,868,False,False,
6,1,89,test,0,male,White,,,,new,,,,m,1026,True,False,
6,1,90,test,0,female,Latino,,,,old,neutral,male,,z,1064,True,False,
6,1,91,test,0,female,White,,,,new,,,,m,850,True,False,
6,1,92,test,0,male,Black,,,,old,angry,female,,m,2198,False,False,
6,1,93,test,0,male,Latino,,,,new,,,,m,822,True,False,
6,1,94,test,0,male,Latino,,,,new,,,,m,739,True,False,
6,1,95,test,0,male,Black,,,,new,,,,z,1134,False,False,
6,1,96,test,0,female,White,,,,new,,,,m,1571,True,False,
6,1,97,test,0,female,Black,,,,new,,,,m,1021,True,False,
6,1,98,test,0,female,White,,,,old,neutral,female,,z,1836,True,False,
6,1,99,test,0,male,White,,,,old,angry,female,,z,953,True,False,
6,1,100,test,0,female,Asian,,,,new,,,,z,1258,False,False,
6,1,101,test,1,male,Black,,,,new,,,,m,1935,True,False,
6,1,102,test,1,male,Black,,,,old,happy,male,,z,883,True,False,
6,1,103,test,1,male,Black,,,,new,,,,z,1382,False,False,
6,1,104,test,1,male,White,,,,new,,,,m,793,True,False,
6,1,105,test,1,female,Asian,,,,new,,,,z,2027,False,False,
6,1,106,test,1,female,Asian,,,,new,,,,m,1582,True,False,
6,1,107,test,1,male,White,,,,old,happy,male,,m,738,False,False,
6,1,108,test,1,female,Black,,,,new,,,,m,717,True,False,
6,1,109,test,1,female,White,,,,old,neutral,male,,m,1132,False,False,
6,1,110,test,1,male,Black,,,,old,angry,female,,m,2702,False,False,
6,1,111,test,1,male,Latino,,,,old,neutral,female,,m,1837,False,False,
6,1,112,test,1,female,Latino,,,,new,,,,z,874,False,False,
6,1,113,test,1,female,White,,,,old,angry,female,,m,1314,False,False,
6,1,114,test,1,female,Black,,,,old,neutral,female,,m,1657,False,False,
6,1,115,test,1,male,Black,,,,new,,,,z,1550,False,False,
6,1,116,test,1,male,Asian,,,,new,,,,m,1110,True,False,
6,1,117,test,1,male,White,,,,old,neutral,male,,m,703,False,False,
6,1,118,test,1,male,Latino,,,,old,neutral,female,,m,742,False,False,
6,1,119,test,1,male,White,,,,old,neutral,male,,m,551,False,False,
6,1,120,test,1,male,Black,,,,old,angry,male,,z,1524,True,False,
6,1,121,test,1,male,Black,,,,new,,,,m,908,True,False,
6,1,122,test,1,female,White,,,,new,,,,z,1065,False,False,
6,1,123,test,1,female,White,,,,old,angry,female,,z,1267,True,False,
6,1,124,test,1,female,Black,,,,new,,,,z,1214,False,False,
6,1,125,test,1,male,Asian,,,,new,,,,m,862,True,False,
6,1,126,test,1,male,Black,,,,new,,,,m,760,True,False,
6,1,127,test,1,male,White,,,,new,,,,m,734,True,False,
6,1,128,test,1,male,White,,,,new,,,,m,709,True,False,
6,1,129,test,1,female,Asian,,,,old,happy,female,,m,1489,False,False,
6,1,130,test,1,male,Asian,,,,new,,,,m,1129,True,False,
6,1,131,test,1,male,Black,,,,old,neutral,female,,z,1074,True,False,
6,1,132,test,1,female,Latino,,,,old,angry,female,,m,1244,False,False,
6,1,133,test,1,male,White,,,,new,,,,m,800,True,False,
6,1,134,test,1,male,White,,,,old,happy,female,,m,597,False,False,
6,1,135,test,1,male,Asian,,,,new,,,,m,859,True,False,
6,1,136,test,1,male,Asian,,,,new,,,,m,1034,True,False,
6,1,137,test,1,male,Black,,,,old,angry,female,,z,959,True,False,
6,1,138,test,1,female,Latino,,,,old,angry,male,,m,1213,False,False,
6,1,139,test,1,female,Black,,,,new,,,,m,1099,True,False,
6,1,140,test,1,female,Black,,,,old,happy,female,,m,887,False,False,
6,1,141,test,2,female,White,,,,new,,,,m,1140,True,False,
6,1,142,test,2,female,White,,,,new,,,,z,1053,False,False,
6,1,143,test,2,female,White,,,,old,angry,male,,z,917,True,False,
6,1,144,test,2,female,White,,,,new,,,,m,909,True,False,
6,1,145,test,2,male,White,,,,new,,,,m,840,True,False,
6,1,146,test,2,male,Asian,,,,new,,,,m,1151,True,False,
6,1,147,test,2,female,White,,,,old,happy,male,,z,743,True,False,
6,1,148,test,2,male,Asian,,,,old,happy,male,,m,945,False,False,
6,1,149,test,2,female,Latino,,,,new,,,,m,2073,True,False,
6,1,150,test,2,female,Black,,,,old,happy,female,,m,1001,False,False,
6,1,151,test,2,female,Asian,,,,old,angry,male,,z,1074,True,False,
6,1,152,test,2,female,Black,,,,old,happy,male,,z,651,True,False,
6,1,153,test,2,female,White,,,,old,happy,male,,m,966,False,False,
6,1,154,test,2,male,Latino,,,,old,neutral,female,,z,1267,True,False,
6,1,155,test,2,female,White,,,,new,,,,m,1168,True,False,
6,1,156,test,2,female,Black,,,,new,,,,m,1419,True,False,
6,1,157,test,2,male,White,,,,old,happy,female,,m,730,False,False,
6,1,158,test,2,female,Black,,,,new,,,,m,1907,True,False,
6,1,159,test,2,female,Asian,,,,old,neutral,female,,z,838,True,False,
6,1,160,test,2,male,White,,,,old,angry,male,,z,646,True,False,
6,1,161,test,2,male,Asian,,,,old,happy,female,,m,982,False,False,
6,1,162,test,2,male,Asian,,,,old,happy,female,,m,1012,False,False,
6,1,163,test,2,female,Black,,,,new,,,,m,1176,True,False,
6,1,164,test,2,female,Black,,,,new,,,,m,1363,True,False,
6,1,165,test,2,male,Latino,,,,old,neutral,female,,m,1202,False,False,
6,1,166,test,2,female,Black,,,,old,neutral,female,,m,1736,False,False,
6,1,167,test,2,male,White,,,,old,neutral,male,,m,1212,False,False,
6,1,168,test,2,male,Black,,,,old,neutral,male,,m,1188,False,False,
6,1,169,test,2,female,Black,,,,old,angry,female,,m,904,False,False,
6,1,170,test,2,female,Latino,,,,new,,,,m,783,True,False,
6,1,171,test,2,female,Asian,,,,old,neutral,male,,z,851,True,False,
6,1,172,test,2,female,Asian,,,,new,,,,z,713,False,False,
6,1,173,test,2,male,White,,,,new,,,,m,1236,True,False,
6,1,174,test,2,female,Black,,,,new,,,,m,968,True,False,
6,1,175,test,2,male,White,,,,new,,,,m,811,True,False,
6,1,176,test,2,male,Black,,,,new,,,,m,1180,True,False,
6,1,177,test,2,female,Black,,,,new,,,,z,1256,False,False,
6,1,178,test,2,male,Asian,,,,new,,,,m,685,True,False,
6,1,179,test,2,male,White,,,,old,happy,male,,m,1118,False,False,
6,1,180,test,2,male,Asian,,,,new,,,,m,1119,True,False,
7,1,1,study,0,female,Black,female,White,angry,,,,,z,1521,True,False,
7,1,2,study,0,male,White,female,White,neutral,,,,,z,1611,False,False,
7,1,3,study,0,female,Black,female,Black,angry,,,,,,,False,True,
7,1,4,study,0,female,Black,male,Black,angry,,,,,m,1243,False,False,
7,1,5,study,0,male,Black,male,White,happy,,,,,z,2071,False,False,
7,1,6,study,0,male,Asian,female,White,neutral,,,,,m,2220,True,False,
7,1,7,study,0,male,Asian,male,White,happy,,,,,m,1391,True,False,
7,1,8,study,0,female,Asian,female,White,angry,,,,,z,1321,True,False,
7,1,9,study,0,male,Asian,male,White,happy,,,,,m,1252,True,False,
7,1,10,study,0,male,White,female,White,angry,,,,,m,2528,True,False,
7,1,11,study,0,male,White,male,Black,neutral,,,,,m,1951,True,False,
7,1,12,study,0,male,Latino,female,Black,angry,,,,,z,1366,False,False,
7,1,13,study,0,male,White,female,White,angry,,,,,m,1027,True,False,
7,1,14,study,0,female,Black,male,White,neutral,,,,,z,1730,True,False,
7,1,15,study,0,female,Black,female,White,happy,,,,,z,1276,True,False,
7,1,16,study,0,male,Latino,female,White,angry,,,,,m,1735,True,False,
7,1,17,study,0,male,Asian,male,White,angry,,,,,m,960,True,False,
7,1,18,study,0,female,Black,female,Black,happy,,,,,z,1284,True,False,
7,1,19,study,0,female,Black,female,Black,happy,,,,,z,1257,True,False,
7,1,20,study,0,female,Black,male,Black,neutral,,,,,m,1060,False,False,
7,1,21,study,0,female,Black,female,White,angry,,,,,z,1226,True,False,
7,1,22,study,0,male,White,male,White,angry,,,,,m,930,True,False,
7,1,23,study,0,male,White,female,White,happy,,,,,z,2134,False,False,
7,1,24,study,0,male,Black,male,Black,angry,,,,,m,2171,True,False,
7,1,25,study,0,female,Asian,male,Black,happy,,,,,z,475,True,False,
7,1,26,study,0,female,Black,male,Black,happy,,,,,,,False,True,
7,1,27,study,0,female,Asian,female,White,angry,,,,,,,False,True,
7,1,28,study,0,female,White,male,Black,neutral,,,,,z,1600,True,False,
7,1,29,study,0,female,White,male,Black,angry,,,,,z,2998,True,False,
7,1,30,study,0,female,Asian,male,White,neutral,,,,,m,1792,False,False,
7,1,31,study,1,female,Latino,male,White,angry,,,,,z,1396,True,False,
7,1,32,study,1,male,Black,female,White,happy,,,,,z,1668,False,False,
7,1,33,study,1,male,Latino,female,White,neutral,,,,,z,1667,False,False,
7,1,34,study,1,male,Asian,female,Black,neutral,,,,,m,1016,True,False,
7,1,35,study,1,female,Latino,female,Black,neutral,,,,,z,159,True,False,
7,1,36,study,1,female,Asian,female,White,happy,,,,,z,1644,True,False,
7,1,37,study,1,male,White,male,White,angry,,,,,m,1469,True,False,
7,1,38,study,1,female,Latino,male,Black,happy,,,,,m,1482,False,False,
7,1,39,study,1,male,Latino,female,Black,neutral,,,,,m,1901,True,False,
7,1,40,study,1,female,Latino,female,Black,neutral,,,,,m,1665,False,False,
7,1,41,study,1,male,Black,female,Black,happy,,,,,z,2511,False,False,
7,1,42,study,1,male,Black,male,White,neutral,,,,,,,False,True,
7,1,43,study,1,female,Latino,female,Black,happy,,,,,m,833,False,False,
7,1,44,study,1,male,Latino,male,White,angry,,,,,z,230,False,False,
7,1,45,study,1,male,Asian,male,Black,neutral,,,,,m,42,True,False,
7,1,46,study,1,male,White,male,White,happy,,,,,m,1803,True,False,
7,1,47,study,1,female,Black,male,White,angry,,,,,m,816,False,False,
7,1,48,study,1,female,Black,female,Black,neutral,,,,,z,1443,True,False,
7,1,49,study,1,male,White,male,White,neutral,,,,,m,1071,True,False,
7,1,50,study,1,female,Latino,male,Black,angry,,,,,m,1157,False,False,
7,1,51,study,1,male,Asian,female,White,happy,,,,,,,False,True,
7,1,52,study,1,male,Latino,female,Black,happy,,,,,m,1683,True,False,
7,1,53,study,1,female,Asian,female,Black,neutral,,,,,m,2045,False,False,
7,1,54,study,1,female,Black,male,White,happy,,,,,,,False,True,
7,1,55,study,1,female,Latino,male,White,neutral,,,,,z,1326,True,False,
7,1,56,study,1,female,White,male,Black,happy,,,,,z,779,True,False,
7,1,57,study,1,male,Black,female,Black,angry,,,,,z,1207,False,False,
7,1,58,study,1,female,Asian,female,White,neutral,,,,,z,1372,True,False,
7,1,59,study,1,male,Black,male,Black,neutral,,,,,,,False,True,
7,1,60,study,1,male,White,male,White,happy,,,,,m,2382,True,False,
7,1,61,test,0,male,Asian,,,,old,happy,female,,m,671,False,False,
7,1,62,test,0,female,White,,,,new,,,,m,433,True,False,
7,1,63,test,0,female,Black,,,,old,happy,female,,z,416,True,False,
7,1,64,test,0,female,Asian,,,,new,,,,z,457,False,False,
7,1,65,test,0,male,White,,,,new,,,,m,1358,True,False,
7,1,66,test,0,male,White,,,,new,,,,m,541,True,False,
7,1,67,test,0,female,Asian,,,,old,angry,female,,z,422,True,False,
7,1,68,test,0,female,Latino,,,,new,,,,m,946,True,False,
7,1,69,test,0,male,White,,,,old,angry,male,,z,546,True,False,
7,1,70,test,0,female,White,,,,new,,,,m,430,True,False,
7,1,71,test,0,female,Asian,,,,old,neutral,female,,m,989,False,False,
7,1,72,test,0,male,White,,,,new,,,,z,602,False,False,
7,1,73,test,0,female,Black,,,,new,,,,z,347,False,False,
7,1,74,test,0,male,Asian,,,,old,neutral,male,,z,778,True,False,
7,1,75,test,0,female,Asian,,,,old,neutral,female,,m,918,False,False,
7,1,76,test,0,female,Black,,,,old,angry,male,,z,573,True,False,
7,1,77,test,0,female,White,,,,new,,,,z,358,False,False,
7,1,78,test,0,male,Latino,,,,old,happy,female,,z,303,True,False,
7,1,79,test,0,male,Latino,,,,old,angry,male,,z,1245,True,False,
7,1,80,test,0,female,Black,,,,new,,,,m,200,True,False,
7,1,81,test,0,female,White,,,,old,neutral,male,,z,224,True,False,
7,1,82,test,0,female,Latino,,,,old,happy,female,,z,1574,True,False,
7,1,83,test,0,male,White,,,,new,,,,m,1084,True,False,
7,1,84,test,0,female,Black,,,,new,,,,z,37,False,False,
7,1,85,test,0,male,Latino,,,,old,neutral,female,,m,193,False,False,
7,1,86,test,0,female,Black,,,,new,,,,z,214,False,False,
7,1,87,test,0,female,Asian,,,,new,,,,m,89,True,False,
7,1,88,test,0,male,Latino,,,,new,,,,z,506,False,False,
7,1,89,test,0,male,Latino,,,,old,angry,female,,m,95,False,False,
7,1,90,test,0,male,Black,,,,new,,,,z,396,False,False,
7,1,91,test,0,male,Asian,,,,new,,,,m,1075,True,False,
7,1,92,test,0,female,Asian,,,,old,happy,male,,m,685,False,False,
7,1,93,test,0,male,White,,,,old,happy,female,,m,425,False,False,
7,1,94,test,0,male,Black,,,,new,,,,m,99,True,False,
7,1,95,test,0,male,White,,,,new,,,,z,581,False,False,
7,1,96,test,0,male,White,,,,new,,,,z,358,False,False,
7,1,97,test,0,male,Black,,,,new,,,,m,2156,True,False,
7,1,98,test,0,male,Asian,,,,old,happy,male,,z,124,True,False,
7,1,99,test,0,female,Black,,,,old,angry,female,,z,244,True,False,
7,1,100,test,0,female,Black,,,,new,,,,z,364,False,False,
7,1,101,test,1,female,White,,,,new,,,,z,631,False,False,
7,1,102,test,1,female,White,,,,new,,,,m,655,True,False,
7,1,103,test,1,female,Latino,,,,old,neutral,female,,m,607,False,False,
7,1,104,test,1,female,Latino,,,,new,,,,m,1559,True,False,
7,1,105,test,1,female,Black,,,,old,angry,female,,m,1184,False,False,
7,1,106,test,1,female,Latino,,,,old,neutral,female,,m,1090,False,False,
7,1,107,test,1,female,Black,,,,old,happy,male,,m,1951,False,False,
7,1,108,test,1,male,Black,,,,new,,,,z,842,False,False,
7,1,109,test,1,female,White,,,,old,happy,male,,z,1281,True,False,
7,1,110,test,1,male,Black,,,,new,,,,m,666,True,False,
7,1,111,test,1,female,Black,,,,new,,,,m,977,True,False,
7,1,112,test,1,female,White,,,,old,angry,male,,m,785,False,False,
7,1,113,test,1,male,Black,,,,new,,,,m,1538,True,False,
7,1,114,test,1,male,Black,,,,new,,,,m,627,True,False,
7,1,115,test,1,female,Asian,,,,new,,,,m,1951,True,False,
7,1,116,test,1,male,Black,,,,new,,,,z,1802,False,False,
7,1,117,test,1,female,Black,,,,new,,,,m,468,True,False,
7,1,118,test,1,male,White,,,,new,,,,m,397,True,False,
7,1,119,test,1,female,Black,,,,old,happy,female,,z,263,True,False,
7,1,120,test,1,female,Asian,,,,old,neutral,male,,z,1680,True,False,
7,1,121,test,1,male,Latino,,,,new,,,,m,552,True,False,
7,1,122,test,1,male,White,,,,old,neutral,male,,z,545,True,False,
7,1,123,test,1,male,Asian,,,,old,neutral,female,,z,529,True,False,
7,1,124,test,1,female,Black,,,,new,,,,m,366,True,False,
7,1,125,test,1,male,Black,,,,old,neutral,male,,m,1076,False,False,
7,1,126,test,1,female,Latino,,,,old,happy,male,,z,836,True,False,
7,1,127,test,1,female,White,,,,new,,,,m,635,True,False,
7,1,128,test,1,female,Black,,,,old,happy,male,,m,333,False,False,
7,1,129,test,1,female,Asian,,,,new,,,,m,1007,True,False,
7,1,130,test,1,male,White,,,,old,neutral,female,,m,333,False,False,
7,1,131,test,1,female,Black,,,,old,neutral,female,,m,1464,False,False,
7,1,132,test,1,female,Asian,,,,old,angry,female,,m,581,False,False,
7,1,133,test,1,female,Black,,,,old,neutral,male,,m,378,False,False,
7,1,134,test,1,male,White,,,,old,angry,male,,m,309,False,False,
7,1,135,test,1,male,Asian,,,,new,,,,m,260,True,False,
7,1,136,test,1,male,Asian,,,,new,,,,m,169,True,False,
7,1,137,test,1,male,Black,,,,old,happy,female,,m,492,False,False,
7,1,138,test,1,female,Latino,,,,new,,,,m,209,True,False,
7,1,139,test,1,female,Black,,,,new,,,,m,592,True,False,
7,1,140,test,1,female,Latino,,,,new,,,,m,757,True,False,
7,1,141,test,2,female,Latino,,,,old,neutral,male,,z,727,True,False,
7,1,142,test,2,male,Latino,,,,new,,,,m,675,True,False,
7,1,143,test,2,male,Black,,,,old,angry,male,,m,293,False,False,
7,1,144,test,2,female,Black,,,,new,,,,m,1894,True,False,
7,1,145,test,2,male,White,,,,old,happy,male,,m,306,False,False,
7,1,146,test,2,female,White,,,,new,,,,z,516,False,False,
7,1,147,test,2,male,White,,,,new,,,,z,368,False,False,
7,1,148,test,2,male,White,,,,old,angry,female,,m,629,False,False,
7,1,149,test,2,male,White,,,,new,,,,m,415,True,False,
7,1,150,test,2,male,Asian,,,,old,angry,male,,z,87,True,False,
7,1,151,test,2,male,White,,,,new,,,,m,430,True,False,
7,1,152,test,2,female,Black,,,,old,happy,female,,m,630,False,False,
7,1,153,test,2,female,Black,,,,old,neutral,male,,m,772,False,False,
7,1,154,test,2,male,White,,,,old,happy,male,,m,272,False,False,
7,1,155,test,2,male,Asian,,,,old,happy,male,,m,1006,False,False,
7,1,156,test,2,male,Asian,,,,old,neutral,female,,z,443,True,False,
7,1,157,test,2,female,Asian,,,,new,,,,m,740,True,False,
7,1,158,test,2,male,Black,,,,new,,,,m,925,True,False,
7,1,159,test,2,female,Black,,,,new,,,,m,810,True,False,
7,1,160,test,2,female,White,,,,new,,,,m,28,True,False,
7,1,161,test,2,male,White,,,,old,angry,female,,z,472,True,False,
7,1,162,test,2,male,Black,,,,old,happy,male,,z,2,True,False,
7,1,163,test,2,male,Latino,,,,old,neutral,female,,m,647,False,False,
7,1,164,test,2,female,Asian,,,,new,,,,z,403,False,False,
7,1,165,test,2,female,Latino,,,,new,,,,m,474,True,False,
7,1,166,test,2,male,Black,,,,new,,,,m,1038,True,False,
7,1,167,test,2,male,Black,,,,new,,,,m,1879,True,False,
7,1,168,test,2,male,Black,,,,old,angry,female,,m,1261,False,False,
7,1,169,test,2,male,White,,,,old,neutral,male,,m,725,False,False,
7,1,170,test,2,female,Black,,,,old,angry,female,,m,806,False,False,
7,1,171,test,2,male,Black,,,,new,,,,m,775,True,False,
7,1,172,test,2,male,Latino,,,,old,angry,female,,m,734,False,False,
7,1,173,test,2,female,Latino,,,,old,angry,male,,z,538,True,False,
7,1,174,test,2,female,Black,,,,old,angry,male,,m,571,False,False,
7,1,175,test,2,female,Latino,,,,old,angry,male,,m,441,False,False,
7,1,176,test,2,male,Black,,,,old,happy,female,,z,263,True,False,
7,1,177,test,2,female,Asian,,,,old,happy,female,,m,264,False,False,
7,1,178,test,2,male,Asian,,,,new,,,,m,419,True,False,
7,1,179,test,2,male,Black,,,,old,neutral,male,,m,321,False,False,
7,1,180,test,2,male,Asian,,,,new,,,,m,358,True,False,
8,1,1,study,0,male,Black,male,Black,happy,,,,,m,772,True,False,
8,1,2,study,0,female,White,female,White,happy,,,,,z,613,True,False,
8,1,3,study,0,female,Latino,female,Black,angry,,,,,z,1125,True,False,
8,1,4,study,0,female,Latino,male,Black,neutral,,,,,z,795,True,False,
8,1,5,study,0,male,Asian,male,Black,neutral,,,,,m,695,True,False,
8,1,6,study,0,female,Black,female,White,neutral,,,,,z,778,True,False,
8,1,7,study,0,male,Asian,male,Black,neutral,,,,,m,625,True,False,
8,1,8,study,0,male,Black,female,White,happy,,,,,m,511,True,False,
8,1,9,study,0,male,Latino,female,White,neutral,,,,,m,868,True,False,
8,1,10,study,0,male,White,female,White,happy,,,,,m,766,True,False,
8,1,11,study,0,female,White,male,White,happy,,,,,z,501,True,False,
8,1,12,study,0,male,White,male,Black,angry,,,,,m,518,True,False,
8,1,13,study,0,male,White,male,Black,happy,,,,,m,585,True,False,
8,1,14,study,0,male,White,male,White,happy,,,,,m,538,True,False,
8,1,15,study,0,female,Black,male,White,angry,,,,,z,676,True,False,
8,1,16,study,0,male,Latino,female,White,neutral,,,,,m,901,True,False,
8,1,17,study,0,male,Black,female,White,happy,,,,,m,600,True,False,
8,1,18,study,0,male,Asian,male,Black,happy,,,,,m,945,True,False,
8,1,19,study,0,female,Black,male,White,neutral,,,,,z,646,True,False,
8,1,20,study,0,female,White,female,Black,happy,,,,,z,778,True,False,
8,1,21,study,0,female,Asian,female,White,angry,,,,,z,829,True,False,
8,1,22,study,0,female,Black,male,White,angry,,,,,z,656,True,False,
8,1,23,study,0,female,Asian,male,Black,neutral,,,,,z,511,True,False,
8,1,24,study,0,male,White,female,Black,angry,,,,,m,646,True,False,
8,1,25,study,0,female,Black,male,Black,happy,,,,,z,1223,True,False,
8,1,26,study,0,male,Asian,male,Black,angry,,,,,m,780,True,False,
8,1,27,study,0,female,White,male,White,happy,,,,,z,633,True,False,
8,1,28,study,0,male,White,female,White,neutral,,,,,m,650,True,False,
8,1,29,study,0,female,Black,male,White,angry,,,,,z,624,True,False,
8,1,30,study,0,female,Asian,female,Black,angry,,,,,z,557,True,False,
8,1,31,study,1,male,Latino,female,White,angry,,,,,m,799,True,False,
8,1,32,study,1,female,Black,female,Black,happy,,,,,z,727,True,False,
8,1,33,study,1,male,Black,male,Black,neutral,,,,,m,603,True,False,
8,1,34,study,1,male,Latino,male,Black,happy,,,,,m,594,True,False,
8,1,35,study,1,female,Black,male,White,neutral,,,,,z,529,True,False,
8,1,36,study,1,male,White,female,White,happy,,,,,m,778,True,False,
8,1,37,study,1,female,Black,male,Black,angry,,,,,z,727,True,False,
8,1,38,study,1,female,White,male,Black,neutral,,,,,z,675,True,False,
8,1,39,study,1,female,White,male,Black,happy,,,,,z,735,True,False,
8,1,40,study,1,male,Latino,female,White,neutral,,,,,m,615,True,False,
8,1,41,study,1,female,White,female,Black,angry,,,,,z,576,True,False,
8,1,42,study,1,male,Asian,female,Black,angry,,,,,m,940,True,False,
8,1,43,study,1,male,Black,male,Black,angry,,,,,m,1025,True,False,
8,1,44,study,1,female,Latino,female,Black,happy,,,,,z,1075,True,False,
8,1,45,study,1,male,Black,female,White,happy,,,,,m,1011,True,False,
8,1,46,study,1,male,Asian,male,White,angry,,,,,m,938,True,False,
8,1,47,study,1,female,Black,male,White,happy,,,,,z,1017,True,False,
8,1,48,study,1,female,Latino,female,Black,neutral,,,,,z,1059,True,False,
8,1,49,study,1,male,Black,male,White,angry,,,,,m,952,True,False,
8,1,50,study,1,female,Black,female,Black,happy,,,,,z,913,True,False,
8,1,51,study,1,male,Black,female,White,angry,,,,,m,969,True,False,
8,1,52,study,1,female,White,female,White,angry,,,,,z,1039,True,False,
8,1,53,study,1,female,White,male,White,angry,,,,,z,961,True,False,
8,1,54,study,1,female,White,female,Black,neutral,,,,,z,921,True,False,
8,1,55,study,1,male,Black,male,Black,neutral,,,,,m,1077,True,False,
8,1,56,study,1,male,White,female,Black,neutral,,,,,m,1025,True,False,
8,1,57,study,1,female,Black,female,White,neutral,,,,,z,1063,True,False,
8,1,58,study,1,male,Latino,male,Black,neutral,,,,,m,986,True,False,
8,1,59,study,1,male,White,female,Black,angry,,,,,m,1052,True,False,
8,1,60,study,1,female,White,female,White,neutral,,,,,z,974,True,False,
8,1,61,test,0,male,Latino,,,,old,neutral,female,,z,1329,False,False,
8,1,62,test,0,female,Black,,,,old,neutral,female,,m,1469,True,False,
8,1,63,test,0,male,Latino,,,,new,,,,z,1128,True,False,
8,1,64,test,0,female,Black,,,,new,,,,m,1270,False,False,
8,1,65,test,0,male,White,,,,old,happy,female,,z,1354,False,False,
8,1,66,test,0,female,Black,,,,new,,,,z,1178,True,False,
8,1,67,test,0,male,Black,,,,old,angry,female,,m,947,True,False,
8,1,68,test,0,female,Latino,,,,old,angry,female,,m,1697,True,False,
8,1,69,test,0,female,Latino,,,,new,,,,z,1065,True,False,
8,1,70,test,0,female,Black,,,,new,,,,z,1360,True,False,
8,1,71,test,0,female,Black,,,,old,happy,male,,m,1014,True,False,
8,1,72,test,0,female,White,,,,new,,,,z,1009,True,False,
8,1,73,test,0,male,Asian,,,,old,angry,female,,z,1135,False,False,
8,1,74,test,0,male,Black,,,,old,neutral,male,,m,934,True,False,
8,1,75,test,0,male,White,,,,old,happy,male,,m,1018,True,False,
8,1,76,test,0,male,Asian,,,,new,,,,m,1029,False,False,
8,1,77,test,0,female,Black,,,,old,neutral,female,,m,1270,True,False,
8,1,78,test,0,male,Asian,,,,old,angry,male,,z,1229,False,False,
8,1,79,test,0,female,White,,,,new,,,,z,1206,True,False,
8,1,80,test,0,female,Asian,,,,new,,,,z,1151,True,False,
8,1,81,test,0,male,White,,,,old,happy,female,,m,894,True,False,
8,1,82,test,0,male,White,,,,old,angry,female,,m,884,True,False,
8,1,83,test,0,female,Asian,,,,new,,,,z,1561,True,False,
8,1,84,test,0,male,Black,,,,new,,,,m,1015,False,False,
8,1,85,test,0,male,Asian,,,,new,,,,z,1268,True,False,
8,1,86,test,0,female,Black,,,,new,,,,m,946,False,False,
8,1,87,test,0,female,White,,,,old,neutral,male,,z,1768,False,False,
8,1,88,test,0,male,Black,,,,new,,,,m,1084,False,False,
8,1,89,test,0,male,White,,,,new,,,,m,1163,False,False,
8,1,90,test,0,male,Black,,,,old,happy,female,,m,1048,True,False,
8,1,91,test,0,male,Latino,,,,new,,,,z,1007,True,False,
8,1,92,test,0,female,White,,,,old,angry,male,,m,1180,True,False,
8,1,93,test,0,male,White,,,,new,,,,z,1022,True,False,
8,1,94,test,0,female,White,,,,old,happy,male,,m,1234,True,False,
8,1,95,test,0,female,Latino,,,,new,,,,z,1031,True,False,
8,1,96,test,0,female,Black,,,,old,angry,male,,z,1005,False,False,
8,1,97,test,0,female,Asian,,,,new,,,,z,1066,True,False,
8,1,98,test,0,male,Asian,,,,old,happy,male,,m,951,True,False,
8,1,99,test,0,female,Black,,,,old,happy,female,,m,871,True,False,
8,1,100,test,0,female,Latino,,,,new,,,,z,992,True,False,
8,1,101,test,1,female,Latino,,,,new,,,,m,1402,False,False,
8,1,102,test,1,male,Black,,,,new,,,,m,855,False,False,
8,1,103,test,1,female,White,,,,old,angry,female,,m,944,True,False,
8,1,104,test,1,male,Latino,,,,old,neutral,male,,z,1004,False,False,
8,1,105,test,1,male,Black,,,,new,,,,z,1110,True,False,
8,1,106,test,1,female,White,,,,old,happy,male,,m,1103,True,False,
8,1,107,test,1,female,Black,,,,new,,,,z,1014,True,False,
8,1,108,test,1,male,White,,,,new,,,,z,951,True,False,
8,1,109,test,1,female,White,,,,old,angry,female,,z,1013,False,False,
8,1,110,test,1,male,White,,,,new,,,,z,1083,True,False,
8,1,111,test,1,male,White,,,,new,,,,m,1176,False,False,
8,1,112,test,1,male,White,,,,old,angry,male,,z,945,False,False,
8,1,113,test,1,female,Black,,,,new,,,,m,1103,False,False,
8,1,114,test,1,female,Black,,,,old,neutral,male,,m,988,True,False,
8,1,115,test,1,female,Asian,,,,old,neutral,male,,m,1118,True,False,
8,1,116,test,1,female,Latino,,,,old,happy,female,,z,1036,False,False,
8,1,117,test,1,male,Latino,,,,old,angry,female,,z,1080,False,False,
8,1,118,test,1,male,Black,,,,old,happy,female,,m,1029,True,False,
8,1,119,test,1,female,Latino,,,,new,,,,z,978,True,False,
8,1,120,test,1,male,White,,,,old,angry,female,,z,1499,False,False,
8,1,121,test,1,male,Latino,,,,new,,,,z,1336,True,False,
8,1,122,test,1,female,Black,,,,old,angry,male,,m,800,True,False,
8,1,123,test,1,male,Black,,,,old,happy,female,,m,1350,True,False,
8,1,124,test,1,female,Black,,,,old,happy,female,,z,1206,False,False,
8,1,125,test,1,female,Latino,,,,new,,,,z,1021,True,False,
8,1,126,test,1,male,Black,,,,new,,,,z,1114,True,False,
8,1,127,test,1,female,White,,,,new,,,,m,1390,False,False,
8,1,128,test,1,female,White,,,,old,happy,female,,m,983,True,False,
8,1,129,test,1,male,Asian,,,,new,,,,z,1206,True,False,
8,1,130,test,1,female,Black,,,,new,,,,z,1040,True,False,
8,1,131,test,1,male,Latino,,,,old,happy,male,,z,1134,False,False,
8,1,132,test,1,female,White,,,,new,,,,z,1175,True,False,
8,1,133,test,1,female,White,,,,new,,,,m,1053,False,False,
8,1,134,test,1,male,Asian,,,,new,,,,z,1015,True,False,
8,1,135,test,1,female,Asian,,,,new,,,,z,1157,True,False,
8,1,136,test,1,female,Latino,,,,new,,,,z,1076,True,False,
8,1,137,test,1,male,Asian,,,,old,neutral,male,,z,1194,False,False,
8,1,138,test,1,male,Asian,,,,new,,,,z,887,True,False,
8,1,139,test,1,female,Latino,,,,old,neutral,female,,z,943,False,False,
8,1,140,test,1,male,Asian,,,,new,,,,m,1084,False,False,
8,1,141,test,2,male,Black,,,,old,neutral,male,,m,1050,True,False,
8,1,142,test,2,female,Black,,,,new,,,,z,950,True,False,
8,1,143,test,2,male,Asian,,,,old,angry,male,,m,1084,True,False,
8,1,144,test,2,male,White,,,,old,neutral,female,,z,1433,False,False,
8,1,145,test,2,female,White,,,,new,,,,z,910,True,False,
8,1,146,test,2,female,Latino,,,,old,neutral,male,,z,1242,False,False,
8,1,147,test,2,male,Black,,,,old,angry,male,,z,1253,False,False,
8,1,148,test,2,female,Asian,,,,old,angry,female,,z,1073,False,False,
8,1,149,test,2,female,White,,,,old,neutral,female,,m,1202,True,False,
8,1,150,test,2,female,Black,,,,old,happy,male,,z,947,False,False,
8,1,151,test,2,female,Asian,,,,old,angry,female,,m,1487,True,False,
8,1,152,test,2,male,White,,,,old,happy,male,,z,2011,False,False,
8,1,153,test,2,female,Latino,,,,new,,,,m,1288,False,False,
8,1,154,test,2,female,Black,,,,new,,,,z,1102,True,False,
8,1,155,test,2,male,Asian,,,,new,,,,m,1200,False,False,
8,1,156,test,2,male,Latino,,,,new,,,,m,1061,False,False,
8,1,157,test,2,male,Black,,,,new,,,,m,898,False,False,
8,1,158,test,2,male,Black,,,,new,,,,z,1010,True,False,
8,1,159,test,2,male,Black,,,,new,,,,m,1181,False,False,
8,1,160,test,2,male,Black,,,,old,happy,male,,m,1070,True,False,
8,1,161,test,2,male,Latino,,,,old,neutral,female,,m,989,True,False,
8,1,162,test,2,female,White,,,,old,happy,male,,m,876,True,False,
8,1,163,test,2,male,Latino,,,,new,,,,z,932,True,False,
8,1,164,test,2,female,Black,,,,old,neutral,male,,z,1172,False,False,
8,1,165,test,2,female,Latino,,,,new,,,,z,1802,True,False,
8,1,166,test,2,female,Black,,,,new,,,,z,1088,True,False,
8,1,167,test,2,male,Black,,,,new,,,,m,977,False,False,
8,1,168,test,2,male,Black,,,,old,angry,male,,m,1287,True,False,
8,1,169,test,2,female,Black,,,,old,angry,male,,,,False,True,
8,1,170,test,2,male,Asian,,,,old,neutral,male,,m,1056,True,False,
8,1,171,test,2,male,White,,,,old,neutral,female,,m,1183,True,False,
8,1,172,test,2,female,White,,,,old,happy,female,,m,1283,True,False,
8,1,173,test,2,male,Latino,,,,old,neutral,female,,m,900,True,False,
8,1,174,test,2,male,White,,,,new,,,,m,1020,False,False,
8,1,175,test,2,male,Asian,,,,new,,,,z,1044,True,False,
8,1,176,test,2,female,Latino,,,,new,,,,z,858,True,False,
8,1,177,test,2,male,White,,,,new,,,,z,1546,True,False,
8,1,178,test,2,male,Black,,,,new,,,,z,1028,True,False,
8,1,179,test,2,female,White,,,,old,neutral,female,,z,950,False,False,
8,1,180,test,2,female,Black,,,,old,angry,male,,z,1140,False,False,
9,1,1,study,0,male,Asian,female,Black,neutral,,,,,m,541,True,False,
9,1,2,study,0,female,White,female,Black,angry,,,,,z,646,True,False,
9,1,3,study,0,male,Latino,male,White,happy,,,,,m,650,True,False,
9,1,4,study,0,female,Black,male,White,neutral,,,,,z,679,True,False,
9,1,5,study,0,male,Asian,male,White,neutral,,,,,m,520,True,False,
9,1,6,study,0,female,White,female,White,neutral,,,,,z,655,True,False,
9,1,7,study,0,male,Asian,female,White,angry,,,,,m,532,True,False,
9,1,8,study,0,male,Asian,female,Black,neutral,,,,,m,633,True,False,
9,1,9,study,0,female,Asian,female,White,angry,,,,,z,610,True,False,
9,1,10,study,0,female,White,female,Black,angry,,,,,m,552,False,False,
9,1,11,study,0,female,Black,female,Black,happy,,,,,z,923,True,False,
9,1,12,study,0,female,White,male,Black,neutral,,,,,z,827,True,False,
9,1,13,study,0,female,Latino,male,Black,happy,,,,,z,944,True,False,
9,1,14,study,0,male,Black,male,Black,happy,,,,,m,891,True,False,
9,1,15,study,0,female,White,female,White,neutral,,,,,z,881,True,False,
9,1,16,study,0,female,White,male,White,happy,,,,,z,1041,True,False,
9,1,17,study,0,female,Black,female,Black,neutral,,,,,z,948,True,False,
9,1,18,study,0,male,Latino,male,Black,neutral,,,,,m,500,True,False,
9,1,19,study,0,male,Black,female,Black,happy,,,,,m,630,True,False,
9,1,20,study,0,male,Asian,male,Black,angry,,,,,m,534,True,False,
9,1,21,study,0,female,Asian,female,White,angry,,,,,z,511,True,False,
9,1,22,study,0,male,White,male,Black,angry,,,,,m,524,True,False,
9,1,23,study,0,female,Black,male,Black,neutral,,,,,z,667,True,False,
9,1,24,study,0,female,Black,female,Black,happy,,,,,z,1161,True,False,
9,1,25,study,0,male,Latino,male,White,angry,,,,,m,543,True,False,
9,1,26,study,0,female,White,male,Black,angry,,,,,z,552,True,False,
9,1,27,study,0,female,Asian,male,White,happy,,,,,z,835,True,False,
9,1,28,study,0,male,Black,female,White,happy,,,,,m,662,True,False,
9,1,29,study,0,male,Asian,female,White,happy,,,,,m,774,True,False,
9,1,30,study,0,female,Asian,female,White,neutral,,,,,z,570,True,False,
9,1,31,study,1,male,White,male,White,neutral,,,,,m,932,True,False,
9,1,32,study,1,male,Black,female,White,angry,,,,,m,581,True,False,
9,1,33,study,1,female,Black,male,White,happy,,,,,z,563,True,False,
9,1,34,study,1,female,Latino,male,White,neutral,,,,,z,746,True,False,
9,1,35,study,1,male,Latino,male,White,happy,,,,,m,530,True,False,
9,1,36,study,1,male,Asian,male,White,happy,,,,,m,634,True,False,
9,1,37,study,1,male,White,female,White,happy,,,,,m,619,True,False,
9,1,38,study,1,male,Black,male,White,neutral,,,,,m,626,True,False,
9,1,39,study,1,female,Black,male,White,angry,,,,,z,478,True,False,
9,1,40,study,1,male,Latino,female,White,angry,,,,,m,683,True,False,
9,1,41,study,1,female,Asian,male,Black,angry,,,,,z,764,True,False,
9,1,42,study,1,male,White,female,Black,angry,,,,,m,671,True,False,
9,1,43,study,1,female,Latino,female,Black,happy,,,,,z,883,True,False,
9,1,44,study,1,male,Asian,male,Black,angry,,,,,m,710,True,False,
9,1,45,study,1,male,Latino,male,Black,angry,,,,,m,1016,True,False,
9,1,46,study,1,male,White,female,White,neutral,,,,,m,614,True,False,
9,1,47,study,1,female,Latino,male,Black,angry,,,,,z,1188,True,False,
9,1,48,study,1,female,Latino,male,White,angry,,,,,z,410,True,False,
9,1,49,study,1,female,White,female,White,neutral,,,,,z,837,True,False,
9,1,50,study,1,female,Latino,male,White,happy,,,,,z,580,True,False,
9,1,51,study,1,male,Black,male,White,neutral,,,,,m,766,True,False,
9,1,52,study,1,female,White,male,White,neutral,,,,,z,629,True,False,
9,1,53,study,1,female,White,female,Black,happy,,,,,z,724,True,False,
9,1,54,study,1,male,Black,male,White,happy,,,,,m,485,True,False,
9,1,55,study,1,male,White,female,Black,neutral,,,,,m,427,True,False,
9,1,56,study,1,male,Black,female,White,happy,,,,,m,496,True,False,
9,1,57,study,1,female,White,female,Black,happy,,,,,z,585,True,False,
9,1,58,study,1,male,White,female,White,neutral,,,,,m,583,True,False,
9,1,59,study,1,male,Black,female,White,angry,,,,,m,681,True,False,
9,1,60,study,1,female,Black,female,White,angry,,,,,z,687,True,False,
9,1,61,test,0,female,Asian,,,,new,,,,z,1034,True,False,
9,1,62,test,0,female,White,,,,old,neutral,female,,m,927,True,False,
9,1,63,test,0,male,White,,,,old,happy,female,,z,964,False,False,
9,1,64,test,0,female,Black,,,,old,neutral,male,,z,1040,False,False,
9,1,65,test,0,female,Asian,,,,old,angry,male,,z,964,False,False,
9,1,66,test,0,male,Black,,,,new,,,,z,781,True,False,
9,1,67,test,0,male,Asian,,,,old,happy,female,,z,1104,False,False,
9,1,68,test,0,male,White,,,,old,neutral,male,,m,1422,True,False,
9,1,69,test,0,female,White,,,,new,,,,z,742,True,False,
9,1,70,test,0,male,Black,,,,new,,,,z,938,True,False,
9,1,71,test,0,male,Asian,,,,old,neutral,female,,m,1034,True,False,
9,1,72,test,0,female,Asian,,,,new,,,,z,827,True,False,
9,1,73,test,0,female,Black,,,,new,,,,m,1279,False,False,
9,1,74,test,0,male,White,,,,new,,,,z,696,True,False,
9,1,75,test,0,female,Black,,,,old,neutral,female,,m,1408,True,False,
9,1,76,test,0,female,Black,,,,new,,,,z,670,True,False,
9,1,77,test,0,female,Black,,,,new,,,,z,927,True,False,
9,1,78,test,0,male,Black,,,,new,,,,m,1512,False,False,
9,1,79,test,0,male,White,,,,new,,,,z,769,True,False,
9,1,80,test,0,male,Latino,,,,old,happy,male,,z,1311,False,False,
9,1,81,test,0,male,Black,,,,new,,,,z,919,True,False,
9,1,82,test,0,male,Black,,,,old,happy,female,,m,1258,True,False,
9,1,83,test,0,male,Asian,,,,new,,,,z,793,True,False,
9,1,84,test,0,female,Black,,,,new,,,,z,1300,True,False,
9,1,85,test,0,male,Black,,,,old,happy,male,,m,1100,True,False,
9,1,86,test,0,male,White,,,,old,angry,male,,z,942,False,False,
9,1,87,test,0,male,Black,,,,new,,,,z,744,True,False,
9,1,88,test,0,male,Black,,,,new,,,,z,707,True,False,
9,1,89,test,0,male,Black,,,,old,happy,female,,m,1071,True,False,
9,1,90,test,0,female,Black,,,,new,,,,z,1067,True,False,
9,1,91,test,0,female,Asian,,,,old,neutral,female,,z,1679,False,False,
9,1,92,test,0,female,Black,,,,old,happy,female,,m,1794,True,False,
9,1,93,test,0,female,White,,,,old,angry,female,,z,768,False,False,
9,1,94,test,0,female,Latino,,,,new,,,,z,703,True,False,
9,1,95,test,0,female,Asian,,,,new,,,,z,765,True,False,
9,1,96,test,0,male,Latino,,,,old,happy,male,,z,902,False,False,
9,1,97,test,0,male,Asian,,,,new,,,,z,691,True,False,
9,1,98,test,0,male,Asian,,,,new,,,,z,1009,True,False,
9,1,99,test,0,female,White,,,,new,,,,m,1506,False,False,
9,1,100,test,0,male,Asian,,,,old,angry,female,,m,1020,True,False,
9,1,101,test,1,female,Black,,,,new,,,,m,1252,False,False,
9,1,102,test,1,male,Asian,,,,new,,,,z,1019,True,False,
9,1,103,test,1,male,Black,,,,old,angry,female,,z,699,False,False,
9,1,104,test,1,female,Black,,,,new,,,,m,897,False,False,
9,1,105,test,1,female,Latino,,,,new,,,,z,740,True,False,
9,1,106,test,1,female,Black,,,,old,neutral,male,,z,822,False,False,
9,1,107,test,1,female,Black,,,,new,,,,m,1114,False,False,
9,1,108,test,1,female,White,,,,old,neutral,male,,z,1238,False,False,
9,1,109,test,1,male,Latino,,,,new,,,,z,675,True,False,
9,1,110,test,1,female,Asian,,,,old,angry,female,,z,852,False,False,
9,1,111,test,1,male,White,,,,new,,,,z,822,True,False,
9,1,112,test,1,female,Asian,,,,new,,,,z,1608,True,False,
9,1,113,test,1,male,Latino,,,,old,angry,male,,z,1285,False,False,
9,1,114,test,1,female,Asian,,,,new,,,,m,900,False,False,
9,1,115,test,1,male,Asian,,,,old,neutral,male,,m,1053,True,False,
9,1,116,test,1,female,Asian,,,,new,,,,z,769,True,False,
9,1,117,test,1,male,Asian,,,,new,,,,z,714,True,False,
9,1,118,test,1,female,Latino,,,,old,neutral,male,,z,819,False,False,
9,1,119,test,1,female,Black,,,,new,,,,m,1177,False,False,
9,1,120,test,1,female,Black,,,,old,happy,male,,z,1280,False,False,
9,1,121,test,1,female,Asian,,,,new,,,,z,843,True,False,
9,1,122,test,1,male,White,,,,new,,,,z,1539,True,False,
9,1,123,test,1,female,Asian,,,,old,angry,female,,m,819,True,False,
9,1,124,test,1,male,Black,,,,new,,,,z,1117,True,False,
9,1,125,test,1,female,White,,,,old,neutral,female,,z,1123,False,False,
9,1,126,test,1,male,White,,,,new,,,,z,626,True,False,
9,1,127,test,1,male,Black,,,,new,,,,z,580,True,False,
9,1,128,test,1,male,Asian,,,,old,angry,male,,z,598,False,False,
9,1,129,test,1,male,Latino,,,,new,,,,z,729,True,False,
9,1,130,test,1,female,White,,,,old,happy,female,,z,843,False,False,
9,1,131,test,1,female,White,,,,old,happy,female,,z,689,False,False,
9,1,132,test,1,male,Asian,,,,new,,,,z,1185,True,False,
9,1,133,test,1,male,Latino,,,,new,,,,m,1702,False,False,
