subject_number,condition,trial_number,phase,block,target_gender,target_race,flanker_gender,flanker_race,flanker_emotion,stimulus_type,study_flanker_emotion,study_flanker_gender,pair_type,response,rt,correct,timed_out,rating,key_mapping,subject_id,study_id,session_id,test_mode,trial_index,target_id,target_filename,flanker_id,flanker_filename,correct_response,device_pixel_ratio
1,1,1,study,0,female,Black,male,Black,angry,,,,,z,1205,True,False,,1,,,,False,17,BF-213,materials/cfd/Images/CFD/BF-213/CFD-BF-213-188-N.jpg,BM-018,materials/cfd/Images/CFD/BM-018/CFD-BM-018-012-A.jpg,z,1
1,1,2,study,0,female,White,male,Black,happy,,,,,z,875,True,False,,1,,,,False,19,WF-207,materials/cfd/Images/CFD/WF-207/CFD-WF-207-014-N.jpg,BM-036,materials/cfd/Images/CFD/BM-036/CFD-BM-036-004-HO.jpg,z,1
1,1,3,study,0,female,Latino,male,Black,angry,,,,,z,753,True,False,,1,,,,False,21,LF-214,materials/cfd/Images/CFD/LF-214/CFD-LF-214-090-N.jpg,BM-025,materials/cfd/Images/CFD/BM-025/CFD-BM-025-045-A.jpg,z,1
1,1,4,study,0,female,Black,male,Black,neutral,,,,,z,808,True,False,,1,,,,False,23,BF-212,materials/cfd/Images/CFD/BF-212/CFD-BF-212-315-N.jpg,BM-204,materials/cfd/Images/CFD/BM-204/CFD-BM-204-003-N.jpg,z,1
1,1,5,study,0,female,White,female,Black,neutral,,,,,z,723,True,False,,1,,,,False,25,WF-238,materials/cfd/Images/CFD/WF-238/CFD-WF-238-023-N.jpg,BF-228,materials/cfd/Images/CFD/BF-228/CFD-BF-228-212-N.jpg,z,1
1,1,6,study,0,male,White,male,White,angry,,,,,m,925,True,False,,1,,,,False,27,WM-250,materials/cfd/Images/CFD/WM-250/CFD-WM-250-157-N.jpg,WM-010,materials/cfd/Images/CFD/WM-010/CFD-WM-010-016-A.jpg,m,1
1,1,7,study,0,male,Asian,female,White,neutral,,,,,m,765,True,False,,1,,,,False,29,AM-230,materials/cfd/Images/CFD/AM-230/CFD-AM-230-150-N.jpg,WF-219,materials/cfd/Images/CFD/WF-219/CFD-WF-219-038-N.jpg,m,1
1,1,8,study,0,female,Asian,male,White,neutral,,,,,z,1286,True,False,,1,,,,False,31,AF-214,materials/cfd/Images/CFD/AF-214/CFD-AF-214-139-N.jpg,WM-225,materials/cfd/Images/CFD/WM-225/CFD-WM-225-127-N.jpg,z,1
1,1,9,study,0,male,Latino,female,Black,neutral,,,,,m,840,True,False,,1,,,,False,33,LM-202,materials/cfd/Images/CFD/LM-202/CFD-LM-202-072-N.jpg,BF-034,materials/cfd/Images/CFD/BF-034/CFD-BF-034-002-N.jpg,m,1
1,1,10,study,0,female,Asian,female,Black,happy,,,,,z,1095,True,False,,1,,,,False,35,AF-254,materials/cfd/Images/CFD/AF-254/CFD-AF-254-167-N.jpg,BF-029,materials/cfd/Images/CFD/BF-029/CFD-BF-029-005-HO.jpg,z,1
1,1,11,study,0,male,Asian,female,Black,happy,,,,,m,781,True,False,,1,,,,False,37,AM-209,materials/cfd/Images/CFD/AM-209/CFD-AM-209-048-N.jpg,BF-001,materials/cfd/Images/CFD/BF-001/CFD-BF-001-018-HO.jpg,m,1
1,1,12,study,0,male,Black,male,Black,happy,,,,,m,1682,True,False,,1,,,,False,39,BM-244,materials/cfd/Images/CFD/BM-244/CFD-BM-244-197-N.jpg,BM-023,materials/cfd/Images/CFD/BM-023/CFD-BM-023-006-HO.jpg,m,1
1,1,13,study,0,female,White,male,Black,angry,,,,,z,887,True,False,,1,,,,False,41,WF-009,materials/cfd/Images/CFD/WF-009/CFD-WF-009-001-N.jpg,BM-019,materials/cfd/Images/CFD/BM-019/CFD-BM-019-045-A.jpg,z,1
1,1,14,study,0,female,White,female,Black,angry,,,,,z,710,True,False,,1,,,,False,43,WF-011,materials/cfd/Images/CFD/WF-011/CFD-WF-011-002-N.jpg,BF-041,materials/cfd/Images/CFD/BF-041/CFD-BF-041-047-A.jpg,z,1
1,1,15,study,0,female,Black,female,White,happy,,,,,z,815,True,False,,1,,,,False,45,BF-033,materials/cfd/Images/CFD/BF-033/CFD-BF-033-028-N.jpg,WF-019,materials/cfd/Images/CFD/WF-019/CFD-WF-019-035-HO.jpg,z,1
1,1,16,study,0,male,Latino,female,White,happy,,,,,m,926,True,False,,1,,,,False,47,LM-241,materials/cfd/Images/CFD/LM-241/CFD-LM-241-125-N.jpg,WF-017,materials/cfd/Images/CFD/WF-017/CFD-WF-017-015-HO.jpg,m,1
1,1,17,study,0,female,White,female,Black,angry,,,,,z,1039,True,False,,1,,,,False,49,WF-020,materials/cfd/Images/CFD/WF-020/CFD-WF-020-002-N.jpg,BF-017,materials/cfd/Images/CFD/BF-017/CFD-BF-017-011-A.jpg,z,1
1,1,18,study,0,male,Asian,male,Black,happy,,,,,m,822,True,False,,1,,,,False,51,AM-223,materials/cfd/Images/CFD/AM-223/CFD-AM-223-138-N.jpg,BM-015,materials/cfd/Images/CFD/BM-015/CFD-BM-015-016-HO.jpg,m,1
1,1,19,study,0,female,Black,male,Black,happy,,,,,z,895,True,False,,1,,,,False,53,BF-246,materials/cfd/Images/CFD/BF-246/CFD-BF-246-170-N.jpg,BM-024,materials/cfd/Images/CFD/BM-024/CFD-BM-024-061-HO.jpg,z,1
1,1,20,study,0,male,Asian,female,Black,angry,,,,,m,713,True,False,,1,,,,False,55,AM-251,materials/cfd/Images/CFD/AM-251/CFD-AM-251-124-N.jpg,BF-010,materials/cfd/Images/CFD/BF-010/CFD-BF-010-019-A.jpg,m,1
1,1,21,study,0,male,Asian,female,White,happy,,,,,m,658,True,False,,1,,,,False,57,AM-248,materials/cfd/Images/CFD/AM-248/CFD-AM-248-104-N.jpg,WF-038,materials/cfd/Images/CFD/WF-038/CFD-WF-038-023-HO.jpg,m,1
1,1,22,study,0,female,Asian,female,Black,angry,,,,,z,1329,True,False,,1,,,,False,59,AF-241,materials/cfd/Images/CFD/AF-241/CFD-AF-241-141-N.jpg,BF-006,materials/cfd/Images/CFD/BF-006/CFD-BF-006-012-A.jpg,z,1
1,1,23,study,0,female,Latino,male,Black,neutral,,,,,z,917,True,False,,1,,,,False,61,LF-231,materials/cfd/Images/CFD/LF-231/CFD-LF-231-260-N.jpg,BM-245,materials/cfd/Images/CFD/BM-245/CFD-BM-245-164-N.jpg,z,1
1,1,24,study,0,male,Black,female,Black,angry,,,,,m,623,True,False,,1,,,,False,63,BM-228,materials/cfd/Images/CFD/BM-228/CFD-BM-228-145-N.jpg,BF-028,materials/cfd/Images/CFD/BF-028/CFD-BF-028-021-A.jpg,m,1
1,1,25,study,0,female,Asian,male,Black,happy,,,,,z,557,True,False,,1,,,,False,65,AF-234,materials/cfd/Images/CFD/AF-234/CFD-AF-234-208-N.jpg,BM-026,materials/cfd/Images/CFD/BM-026/CFD-BM-026-009-HO.jpg,z,1
1,1,26,study,0,male,White,female,Black,neutral,,,,,m,937,True,False,,1,,,,False,67,WM-214,materials/cfd/Images/CFD/WM-214/CFD-WM-214-026-N.jpg,BF-024,materials/cfd/Images/CFD/BF-024/CFD-BF-024-002-N.jpg,m,1
1,1,27,study,0,female,White,male,Black,angry,,,,,z,855,True,False,,1,,,,False,69,WF-215,materials/cfd/Images/CFD/WF-215/CFD-WF-215-145-N.jpg,BM-020,materials/cfd/Images/CFD/BM-020/CFD-BM-020-037-A.jpg,z,1
1,1,28,study,0,male,Latino,male,White,angry,,,,,m,741,True,False,,1,,,,False,71,LM-232,materials/cfd/Images/CFD/LM-232/CFD-LM-232-204-N.jpg,WM-040,materials/cfd/Images/CFD/WM-040/CFD-WM-040-007-A.jpg,m,1
1,1,29,study,0,male,Asian,male,Black,happy,,,,,m,863,True,False,,1,,,,False,73,AM-240,materials/cfd/Images/CFD/AM-240/CFD-AM-240-191-N.jpg,BM-040,materials/cfd/Images/CFD/BM-040/CFD-BM-040-030-HO.jpg,m,1
1,1,30,study,0,female,Black,female,Black,neutral,,,,,z,739,True,False,,1,,,,False,75,BF-249,materials/cfd/Images/CFD/BF-249/CFD-BF-249-091-N.jpg,BF-225,materials/cfd/Images/CFD/BF-225/CFD-BF-225-192-N.jpg,z,1
1,1,31,study,1,female,Latino,female,White,angry,,,,,z,1471,True,False,,1,,,,False,78,LF-252,materials/cfd/Images/CFD/LF-252/CFD-LF-252-172-N.jpg,WF-030,materials/cfd/Images/CFD/WF-030/CFD-WF-030-033-A.jpg,z,1
1,1,32,study,1,female,Black,female,Black,happy,,,,,z,931,True,False,,1,,,,False,80,BF-220,materials/cfd/Images/CFD/BF-220/CFD-BF-220-161-N.jpg,BF-003,materials/cfd/Images/CFD/BF-003/CFD-BF-003-004-HO.jpg,z,1
1,1,33,study,1,male,White,female,Black,happy,,,,,m,655,True,False,,1,,,,False,82,WM-252,materials/cfd/Images/CFD/WM-252/CFD-WM-252-224-N.jpg,BF-013,materials/cfd/Images/CFD/BF-013/CFD-BF-013-003-HO.jpg,m,1
1,1,34,study,1,male,Black,male,White,angry,,,,,m,700,True,False,,1,,,,False,84,BM-206,materials/cfd/Images/CFD/BM-206/CFD-BM-206-114-N.jpg,WM-013,materials/cfd/Images/CFD/WM-013/CFD-WM-013-015-A.jpg,m,1
1,1,35,study,1,male,White,male,White,happy,,,,,m,717,True,False,,1,,,,False,86,WM-247,materials/cfd/Images/CFD/WM-247/CFD-WM-247-084-N.jpg,WM-025,materials/cfd/Images/CFD/WM-025/CFD-WM-025-019-HO.jpg,m,1
1,1,36,study,1,female,Asian,female,Black,neutral,,,,,z,852,True,False,,1,,,,False,88,AF-202,materials/cfd/Images/CFD/AF-202/CFD-AF-202-122-N.jpg,BF-206,materials/cfd/Images/CFD/BF-206/CFD-BF-206-143-N.jpg,z,1
1,1,37,study,1,male,Asian,female,Black,neutral,,,,,m,1140,True,False,,1,,,,False,90,AM-212,materials/cfd/Images/CFD/AM-212/CFD-AM-212-050-N.jpg,BF-238,materials/cfd/Images/CFD/BF-238/CFD-BF-238-190-N.jpg,m,1
1,1,38,study,1,male,Latino,female,White,angry,,,,,m,1198,True,False,,1,,,,False,92,LM-230,materials/cfd/Images/CFD/LM-230/CFD-LM-230-202-N.jpg,WF-025,materials/cfd/Images/CFD/WF-025/CFD-WF-025-015-A.jpg,m,1
1,1,39,study,1,female,White,male,Black,neutral,,,,,z,774,True,False,,1,,,,False,94,WF-023,materials/cfd/Images/CFD/WF-023/CFD-WF-023-003-N.jpg,BM-248,materials/cfd/Images/CFD/BM-248/CFD-BM-248-128-N.jpg,z,1
1,1,40,study,1,male,Asian,male,White,neutral,,,,,m,1351,True,False,,1,,,,False,96,AM-205,materials/cfd/Images/CFD/AM-205/CFD-AM-205-153-N.jpg,WM-012,materials/cfd/Images/CFD/WM-012/CFD-WM-012-001-N.jpg,m,1
1,1,41,study,1,male,White,male,Black,angry,,,,,m,972,True,False,,1,,,,False,98,WM-244,materials/cfd/Images/CFD/WM-244/CFD-WM-244-003-N.jpg,BM-031,materials/cfd/Images/CFD/BM-031/CFD-BM-031-030-A.jpg,m,1
1,1,42,study,1,male,Asian,female,Black,happy,,,,,m,1166,True,False,,1,,,,False,100,AM-242,materials/cfd/Images/CFD/AM-242/CFD-AM-242-176-N.jpg,BF-032,materials/cfd/Images/CFD/BF-032/CFD-BF-032-043-HO.jpg,m,1
1,1,43,study,1,female,Asian,male,White,happy,,,,,z,1158,True,False,,1,,,,False,102,AF-201,materials/cfd/Images/CFD/AF-201/CFD-AF-201-060-N.jpg,WM-037,materials/cfd/Images/CFD/WM-037/CFD-WM-037-034-HO.jpg,z,1
1,1,44,study,1,male,White,female,Black,neutral,,,,,m,850,True,False,,1,,,,False,104,WM-234,materials/cfd/Images/CFD/WM-234/CFD-WM-234-118-N.jpg,BF-037,materials/cfd/Images/CFD/BF-037/CFD-BF-037-022-N.jpg,m,1
1,1,45,study,1,male,White,male,Black,neutral,,,,,m,681,True,False,,1,,,,False,106,WM-212,materials/cfd/Images/CFD/WM-212/CFD-WM-212-097-N.jpg,BM-038,materials/cfd/Images/CFD/BM-038/CFD-BM-038-001-N.jpg,m,1
1,1,46,study,1,female,Latino,female,Black,neutral,,,,,z,906,True,False,,1,,,,False,108,LF-248,materials/cfd/Images/CFD/LF-248/CFD-LF-248-160-N.jpg,BF-208,materials/cfd/Images/CFD/BF-208/CFD-BF-208-266-N.jpg,z,1
1,1,47,study,1,male,White,male,White,happy,,,,,m,846,True,False,,1,,,,False,110,WM-004,materials/cfd/Images/CFD/WM-004/CFD-WM-004-010-N.jpg,WM-019,materials/cfd/Images/CFD/WM-019/CFD-WM-019-009-HO.jpg,m,1
1,1,48,study,1,male,White,female,Black,angry,,,,,m,999,True,False,,1,,,,False,112,WM-221,materials/cfd/Images/CFD/WM-221/CFD-WM-221-091-N.jpg,BF-002,materials/cfd/Images/CFD/BF-002/CFD-BF-002-018-A.jpg,m,1
1,1,49,study,1,male,Asian,male,Black,angry,,,,,m,829,True,False,,1,,,,False,114,AM-249,materials/cfd/Images/CFD/AM-249/CFD-AM-249-163-N.jpg,BM-032,materials/cfd/Images/CFD/BM-032/CFD-BM-032-015-A.jpg,m,1
1,1,50,study,1,female,Black,female,Black,neutral,,,,,z,1121,True,False,,1,,,,False,116,BF-230,materials/cfd/Images/CFD/BF-230/CFD-BF-230-189-N.jpg,BF-207,materials/cfd/Images/CFD/BF-207/CFD-BF-207-004-N.jpg,z,1
1,1,51,study,1,female,Latino,male,Black,neutral,,,,,z,1128,True,False,,1,,,,False,118,LF-208,materials/cfd/Images/CFD/LF-208/CFD-LF-208-127-N.jpg,BM-009,materials/cfd/Images/CFD/BM-009/CFD-BM-009-002-N.jpg,z,1
1,1,52,study,1,female,Latino,female,White,angry,,,,,z,832,True,False,,1,,,,False,120,LF-221,materials/cfd/Images/CFD/LF-221/CFD-LF-221-002-N.jpg,WF-012,materials/cfd/Images/CFD/WF-012/CFD-WF-012-012-A.jpg,z,1
1,1,53,study,1,male,Latino,female,White,angry,,,,,m,1217,True,False,,1,,,,False,122,LM-235,materials/cfd/Images/CFD/LM-235/CFD-LM-235-231-N.jpg,WF-015,materials/cfd/Images/CFD/WF-015/CFD-WF-015-014-A.jpg,m,1
1,1,54,study,1,female,Black,male,Black,angry,,,,,z,899,True,False,,1,,,,False,124,BF-040,materials/cfd/Images/CFD/BF-040/CFD-BF-040-003-N.jpg,BM-021,materials/cfd/Images/CFD/BM-021/CFD-BM-021-026-A.jpg,z,1
1,1,55,study,1,female,White,female,Black,happy,,,,,z,851,True,False,,1,,,,False,126,WF-037,materials/cfd/Images/CFD/WF-037/CFD-WF-037-029-N.jpg,BF-008,materials/cfd/Images/CFD/BF-008/CFD-BF-008-003-HO.jpg,z,1
1,1,56,study,1,male,Latino,male,Black,neutral,,,,,z,1370,False,False,,1,,,,False,128,LM-249,materials/cfd/Images/CFD/LM-249/CFD-LM-249-001-N.jpg,BM-224,materials/cfd/Images/CFD/BM-224/CFD-BM-224-073-N.jpg,m,1
1,1,57,study,1,female,White,female,Black,happy,,,,,z,930,True,False,,1,,,,False,130,WF-208,materials/cfd/Images/CFD/WF-208/CFD-WF-208-068-N.jpg,BF-019,materials/cfd/Images/CFD/BF-019/CFD-BF-019-022-HO.jpg,z,1
1,1,58,study,1,male,Latino,male,Black,neutral,,,,,m,930,True,False,,1,,,,False,132,LM-225,materials/cfd/Images/CFD/LM-225/CFD-LM-225-130-N.jpg,BM-001,materials/cfd/Images/CFD/BM-001/CFD-BM-001-014-N.jpg,m,1
1,1,59,study,1,female,Black,male,Black,happy,,,,,z,953,True,False,,1,,,,False,134,BF-021,materials/cfd/Images/CFD/BF-021/CFD-BF-021-013-N.jpg,BM-037,materials/cfd/Images/CFD/BM-037/CFD-BM-037-036-HO.jpg,z,1
1,1,60,study,1,male,Black,male,Black,neutral,,,,,m,1073,True,False,,1,,,,False,136,BM-002,materials/cfd/Images/CFD/BM-002/CFD-BM-002-013-N.jpg,BM-222,materials/cfd/Images/CFD/BM-222/CFD-BM-222-173-N.jpg,m,1
1,1,61,test,0,male,Black,,,,new,,,,z,1441,False,False,,1,,,,False,153,BM-217,materials/cfd/Images/CFD/BM-217/CFD-BM-217-082-N.jpg,,,m,1
1,1,62,test,0,female,Latino,,,,old,angry,male,,m,987,False,False,,1,,,,False,155,LF-214,materials/cfd/Images/CFD/LF-214/CFD-LF-214-090-N.jpg,,,z,1
1,1,63,test,0,female,Black,,,,old,happy,female,,z,1018,True,False,,1,,,,False,157,BF-033,materials/cfd/Images/CFD/BF-033/CFD-BF-033-028-N.jpg,,,z,1
1,1,64,test,0,male,White,,,,new,,,,m,985,True,False,,1,,,,False,159,WM-206,materials/cfd/Images/CFD/WM-206/CFD-WM-206-045-N.jpg,,,m,1
1,1,65,test,0,male,White,,,,old,happy,male,,m,728,False,False,,1,,,,False,161,WM-247,materials/cfd/Images/CFD/WM-247/CFD-WM-247-084-N.jpg,,,z,1
1,1,66,test,0,male,White,,,,new,,,,m,671,True,False,,1,,,,False,163,WM-041,materials/cfd/Images/CFD/WM-041/CFD-WM-041-021-N.jpg,,,m,1
1,1,67,test,0,female,White,,,,old,angry,male,,z,1360,True,False,,1,,,,False,165,WF-215,materials/cfd/Images/CFD/WF-215/CFD-WF-215-145-N.jpg,,,z,1
1,1,68,test,0,female,White,,,,new,,,,m,975,True,False,,1,,,,False,167,WF-242,materials/cfd/Images/CFD/WF-242/CFD-WF-242-001-N.jpg,,,m,1
1,1,69,test,0,female,Black,,,,old,happy,male,,m,1340,False,False,,1,,,,False,169,BF-021,materials/cfd/Images/CFD/BF-021/CFD-BF-021-013-N.jpg,,,z,1
1,1,70,test,0,female,Black,,,,old,angry,male,,m,955,False,False,,1,,,,False,171,BF-213,materials/cfd/Images/CFD/BF-213/CFD-BF-213-188-N.jpg,,,z,1
1,1,71,test,0,male,Latino,,,,old,angry,male,,z,1797,True,False,,1,,,,False,173,LM-232,materials/cfd/Images/CFD/LM-232/CFD-LM-232-204-N.jpg,,,z,1
1,1,72,test,0,male,White,,,,new,,,,m,1909,True,False,,1,,,,False,175,WM-232,materials/cfd/Images/CFD/WM-232/CFD-WM-232-070-N.jpg,,,m,1
1,1,73,test,0,female,White,,,,new,,,,m,966,True,False,,1,,,,False,177,WF-248,materials/cfd/Images/CFD/WF-248/CFD-WF-248-129-N.jpg,,,m,1
1,1,74,test,0,female,Asian,,,,new,,,,m,988,True,False,,1,,,,False,179,AF-217,materials/cfd/Images/CFD/AF-217/CFD-AF-217-155-N.jpg,,,m,1
1,1,75,test,0,female,White,,,,old,neutral,male,,m,1255,False,False,,1,,,,False,181,WF-023,materials/cfd/Images/CFD/WF-023/CFD-WF-023-003-N.jpg,,,z,1
1,1,76,test,0,female,White,,,,new,,,,m,873,True,False,,1,,,,False,183,WF-014,materials/cfd/Images/CFD/WF-014/CFD-WF-014-002-N.jpg,,,m,1
1,1,77,test,0,male,Latino,,,,old,angry,female,,m,2091,False,False,,1,,,,False,185,LM-235,materials/cfd/Images/CFD/LM-235/CFD-LM-235-231-N.jpg,,,z,1
1,1,78,test,0,female,Asian,,,,new,,,,m,1023,True,False,,1,,,,False,187,AF-256,materials/cfd/Images/CFD/AF-256/CFD-AF-256-160-N.jpg,,,m,1
1,1,79,test,0,female,Asian,,,,old,neutral,male,,z,851,True,False,,1,,,,False,189,AF-214,materials/cfd/Images/CFD/AF-214/CFD-AF-214-139-N.jpg,,,z,1
1,1,80,test,0,female,Asian,,,,new,,,,m,1242,True,False,,1,,,,False,191,AF-235,materials/cfd/Images/CFD/AF-235/CFD-AF-235-170-N.jpg,,,m,1
1,1,81,test,0,female,Asian,,,,old,neutral,female,,z,1425,True,False,,1,,,,False,193,AF-202,materials/cfd/Images/CFD/AF-202/CFD-AF-202-122-N.jpg,,,z,1
1,1,82,test,0,female,White,,,,old,angry,female,,z,918,True,False,,1,,,,False,195,WF-020,materials/cfd/Images/CFD/WF-020/CFD-WF-020-002-N.jpg,,,z,1
1,1,83,test,0,male,White,,,,old,neutral,male,,z,1487,True,False,,1,,,,False,197,WM-212,materials/cfd/Images/CFD/WM-212/CFD-WM-212-097-N.jpg,,,z,1
1,1,84,test,0,female,Latino,,,,new,,,,m,700,True,False,,1,,,,False,199,LF-243,materials/cfd/Images/CFD/LF-243/CFD-LF-243-175-N.jpg,,,m,1
1,1,85,test,0,male,Latino,,,,old,neutral,male,,z,1147,True,False,,1,,,,False,201,LM-225,materials/cfd/Images/CFD/LM-225/CFD-LM-225-130-N.jpg,,,z,1
1,1,86,test,0,male,Black,,,,old,neutral,male,,z,836,True,False,,1,,,,False,203,BM-002,materials/cfd/Images/CFD/BM-002/CFD-BM-002-013-N.jpg,,,z,1
1,1,87,test,0,male,White,,,,new,,,,m,1134,True,False,,1,,,,False,205,WM-222,materials/cfd/Images/CFD/WM-222/CFD-WM-222-057-N.jpg,,,m,1
1,1,88,test,0,female,Asian,,,,new,,,,m,871,True,False,,1,,,,False,207,AF-232,materials/cfd/Images/CFD/AF-232/CFD-AF-232-078-N.jpg,,,m,1
1,1,89,test,0,male,Black,,,,old,happy,male,,z,1229,True,False,,1,,,,False,209,BM-244,materials/cfd/Images/CFD/BM-244/CFD-BM-244-197-N.jpg,,,z,1
1,1,90,test,0,female,Black,,,,new,,,,z,2051,False,False,,1,,,,False,211,BF-038,materials/cfd/Images/CFD/BF-038/CFD-BF-038-037-N.jpg,,,m,1
1,1,91,test,0,male,Black,,,,new,,,,m,914,True,False,,1,,,,False,213,BM-017,materials/cfd/Images/CFD/BM-017/CFD-BM-017-021-N.jpg,,,m,1
1,1,92,test,0,female,Latino,,,,new,,,,m,1047,True,False,,1,,,,False,215,LF-216,materials/cfd/Images/CFD/LF-216/CFD-LF-216-121-N.jpg,,,m,1
1,1,93,test,0,male,Asian,,,,old,angry,male,,z,694,True,False,,1,,,,False,217,AM-249,materials/cfd/Images/CFD/AM-249/CFD-AM-249-163-N.jpg,,,z,1
1,1,94,test,0,male,Asian,,,,new,,,,m,1084,True,False,,1,,,,False,219,AM-236,materials/cfd/Images/CFD/AM-236/CFD-AM-236-090-N.jpg,,,m,1
1,1,95,test,0,male,Asian,,,,old,happy,female,,m,815,False,False,,1,,,,False,221,AM-242,materials/cfd/Images/CFD/AM-242/CFD-AM-242-176-N.jpg,,,z,1
1,1,96,test,0,female,Asian,,,,new,,,,m,946,True,False,,1,,,,False,223,AF-248,materials/cfd/Images/CFD/AF-248/CFD-AF-248-148-N.jpg,,,m,1
1,1,97,test,0,male,Asian,,,,old,happy,female,,m,838,False,False,,1,,,,False,225,AM-248,materials/cfd/Images/CFD/AM-248/CFD-AM-248-104-N.jpg,,,z,1
1,1,98,test,0,male,Asian,,,,new,,,,m,1025,True,False,,1,,,,False,227,AM-221,materials/cfd/Images/CFD/AM-221/CFD-AM-221-184-N.jpg,,,m,1
1,1,99,test,0,female,Black,,,,old,neutral,male,,m,1363,False,False,,1,,,,False,229,BF-212,materials/cfd/Images/CFD/BF-212/CFD-BF-212-315-N.jpg,,,z,1
1,1,100,test,0,male,Latino,,,,new,,,,z,1108,False,False,,1,,,,False,231,LM-219,materials/cfd/Images/CFD/LM-219/CFD-LM-219-295-N.jpg,,,m,1
1,1,101,test,1,female,Latino,,,,old,neutral,female,,m,1070,False,False,,1,,,,False,234,LF-248,materials/cfd/Images/CFD/LF-248/CFD-LF-248-160-N.jpg,,,z,1
1,1,102,test,1,female,Black,,,,old,neutral,female,,m,958,False,False,,1,,,,False,236,BF-230,materials/cfd/Images/CFD/BF-230/CFD-BF-230-189-N.jpg,,,z,1
1,1,103,test,1,male,White,,,,new,,,,m,762,True,False,,1,,,,False,238,WM-001,materials/cfd/Images/CFD/WM-001/CFD-WM-001-014-N.jpg,,,m,1
1,1,104,test,1,male,Asian,,,,old,neutral,female,,m,1240,False,False,,1,,,,False,240,AM-212,materials/cfd/Images/CFD/AM-212/CFD-AM-212-050-N.jpg,,,z,1
1,1,105,test,1,male,Black,,,,new,,,,m,1071,True,False,,1,,,,False,242,BM-229,materials/cfd/Images/CFD/BM-229/CFD-BM-229-209-N.jpg,,,m,1
1,1,106,test,1,female,Black,,,,old,happy,male,,m,1221,False,False,,1,,,,False,244,BF-246,materials/cfd/Images/CFD/BF-246/CFD-BF-246-170-N.jpg,,,z,1
1,1,107,test,1,female,Black,,,,old,neutral,female,,m,990,False,False,,1,,,,False,246,BF-249,materials/cfd/Images/CFD/BF-249/CFD-BF-249-091-N.jpg,,,z,1
1,1,108,test,1,male,White,,,,old,angry,female,,z,1140,True,False,,1,,,,False,248,WM-221,materials/cfd/Images/CFD/WM-221/CFD-WM-221-091-N.jpg,,,z,1
1,1,109,test,1,female,Black,,,,new,,,,m,1205,True,False,,1,,,,False,250,BF-248,materials/cfd/Images/CFD/BF-248/CFD-BF-248-149-N.jpg,,,m,1
1,1,110,test,1,male,Asian,,,,new,,,,z,927,False,False,,1,,,,False,252,AM-252,materials/cfd/Images/CFD/AM-252/CFD-AM-252-114-N.jpg,,,m,1
1,1,111,test,1,female,Latino,,,,new,,,,m,2031,True,False,,1,,,,False,254,LF-235,materials/cfd/Images/CFD/LF-235/CFD-LF-235-219-N.jpg,,,m,1
1,1,112,test,1,male,White,,,,new,,,,z,919,False,False,,1,,,,False,256,WM-029,materials/cfd/Images/CFD/WM-029/CFD-WM-029-023-N.jpg,,,m,1
1,1,113,test,1,female,Latino,,,,old,angry,female,,m,955,False,False,,1,,,,False,258,LF-221,materials/cfd/Images/CFD/LF-221/CFD-LF-221-002-N.jpg,,,z,1
1,1,114,test,1,male,Black,,,,new,,,,m,701,True,False,,1,,,,False,260,BM-230,materials/cfd/Images/CFD/BM-230/CFD-BM-230-232-N.jpg,,,m,1
1,1,115,test,1,female,Black,,,,new,,,,m,1139,True,False,,1,,,,False,262,BF-020,materials/cfd/Images/CFD/BF-020/CFD-BF-020-002-N.jpg,,,m,1
1,1,116,test,1,male,Latino,,,,old,happy,female,,m,794,False,False,,1,,,,False,264,LM-241,materials/cfd/Images/CFD/LM-241/CFD-LM-241-125-N.jpg,,,z,1
1,1,117,test,1,male,Black,,,,old,angry,male,,z,1118,True,False,,1,,,,False,266,BM-206,materials/cfd/Images/CFD/BM-206/CFD-BM-206-114-N.jpg,,,z,1
1,1,118,test,1,male,Asian,,,,old,happy,male,,m,1238,False,False,,1,,,,False,268,AM-223,materials/cfd/Images/CFD/AM-223/CFD-AM-223-138-N.jpg,,,z,1
1,1,119,test,1,female,White,,,,old,angry,male,,z,1241,True,False,,1,,,,False,270,WF-009,materials/cfd/Images/CFD/WF-009/CFD-WF-009-001-N.jpg,,,z,1
1,1,120,test,1,male,Latino,,,,new,,,,m,983,True,False,,1,,,,False,272,LM-201,materials/cfd/Images/CFD/LM-201/CFD-LM-201-057-N.jpg,,,m,1
1,1,121,test,1,female,Latino,,,,old,angry,female,,m,1027,False,False,,1,,,,False,274,LF-252,materials/cfd/Images/CFD/LF-252/CFD-LF-252-172-N.jpg,,,z,1
1,1,122,test,1,male,Asian,,,,new,,,,m,945,True,False,,1,,,,False,276,AM-229,materials/cfd/Images/CFD/AM-229/CFD-AM-229-224-N.jpg,,,m,1
1,1,123,test,1,female,Asian,,,,old,happy,male,,m,613,False,False,,1,,,,False,278,AF-234,materials/cfd/Images/CFD/AF-234/CFD-AF-234-208-N.jpg,,,z,1
1,1,124,test,1,male,Latino,,,,old,neutral,male,,m,1113,False,False,,1,,,,False,280,LM-249,materials/cfd/Images/CFD/LM-249/CFD-LM-249-001-N.jpg,,,z,1
1,1,125,test,1,male,Asian,,,,old,angry,female,,m,1157,False,False,,1,,,,False,282,AM-251,materials/cfd/Images/CFD/AM-251/CFD-AM-251-124-N.jpg,,,z,1
1,1,126,test,1,female,Black,,,,new,,,,m,928,True,False,,1,,,,False,284,BF-012,materials/cfd/Images/CFD/BF-012/CFD-BF-012-001-N.jpg,,,m,1
1,1,127,test,1,male,Latino,,,,old,neutral,female,,m,955,False,False,,1,,,,False,286,LM-202,materials/cfd/Images/CFD/LM-202/CFD-LM-202-072-N.jpg,,,z,1
1,1,128,test,1,female,White,,,,old,angry,female,,m,1208,False,False,,1,,,,False,288,WF-011,materials/cfd/Images/CFD/WF-011/CFD-WF-011-002-N.jpg,,,z,1
1,1,129,test,1,male,Asian,,,,old,happy,female,,m,1416,False,False,,1,,,,False,290,AM-209,materials/cfd/Images/CFD/AM-209/CFD-AM-209-048-N.jpg,,,z,1
1,1,130,test,1,female,Black,,,,new,,,,m,1356,True,False,,1,,,,False,292,BF-224,materials/cfd/Images/CFD/BF-224/CFD-BF-224-002-N.jpg,,,m,1
1,1,131,test,1,female,Black,,,,new,,,,m,935,True,False,,1,,,,False,294,BF-200,materials/cfd/Images/CFD/BF-200/CFD-BF-200-080-N.jpg,,,m,1
1,1,132,test,1,female,Latino,,,,new,,,,m,1253,True,False,,1,,,,False,296,LF-249,materials/cfd/Images/CFD/LF-249/CFD-LF-249-132-N.jpg,,,m,1
1,1,133,test,1,female,Asian,,,,old,happy,female,,m,847,False,False,,1,,,,False,298,AF-254,materials/cfd/Images/CFD/AF-254/CFD-AF-254-167-N.jpg,,,z,1
1,1,134,test,1,female,White,,,,old,neutral,female,,m,846,False,False,,1,,,,False,300,WF-238,materials/cfd/Images/CFD/WF-238/CFD-WF-238-023-N.jpg,,,z,1
1,1,135,test,1,male,White,,,,old,neutral,female,,z,776,True,False,,1,,,,False,302,WM-234,materials/cfd/Images/CFD/WM-234/CFD-WM-234-118-N.jpg,,,z,1
1,1,136,test,1,female,Black,,,,new,,,,z,753,False,False,,1,,,,False,304,BF-253,materials/cfd/Images/CFD/BF-253/CFD-BF-253-202-N.jpg,,,m,1
1,1,137,test,1,female,Latino,,,,old,neutral,male,,m,934,False,False,,1,,,,False,306,LF-231,materials/cfd/Images/CFD/LF-231/CFD-LF-231-260-N.jpg,,,z,1
1,1,138,test,1,female,Latino,,,,old,neutral,male,,m,1211,False,False,,1,,,,False,308,LF-208,materials/cfd/Images/CFD/LF-208/CFD-LF-208-127-N.jpg,,,z,1
1,1,139,test,1,male,White,,,,new,,,,z,1129,False,False,,1,,,,False,310,WM-024,materials/cfd/Images/CFD/WM-024/CFD-WM-024-015-N.jpg,,,m,1
1,1,140,test,1,male,Latino,,,,new,,,,m,654,True,False,,1,,,,False,312,LM-221,materials/cfd/Images/CFD/LM-221/CFD-LM-221-216-N.jpg,,,m,1
1,1,141,test,2,male,Latino,,,,new,,,,m,1094,True,False,,1,,,,False,315,LM-206,materials/cfd/Images/CFD/LM-206/CFD-LM-206-204-N.jpg,,,m,1
1,1,142,test,2,male,White,,,,old,neutral,female,,m,698,False,False,,1,,,,False,317,WM-214,materials/cfd/Images/CFD/WM-214/CFD-WM-214-026-N.jpg,,,z,1
1,1,143,test,2,female,Latino,,,,new,,,,m,889,True,False,,1,,,,False,319,LF-237,materials/cfd/Images/CFD/LF-237/CFD-LF-237-190-N.jpg,,,m,1
1,1,144,test,2,female,Asian,,,,new,,,,m,880,True,False,,1,,,,False,321,AF-249,materials/cfd/Images/CFD/AF-249/CFD-AF-249-092-N.jpg,,,m,1
1,1,145,test,2,male,Latino,,,,new,,,,m,957,True,False,,1,,,,False,323,LM-250,materials/cfd/Images/CFD/LM-250/CFD-LM-250-077-N.jpg,,,m,1
1,1,146,test,2,female,White,,,,old,happy,female,,m,897,False,False,,1,,,,False,325,WF-208,materials/cfd/Images/CFD/WF-208/CFD-WF-208-068-N.jpg,,,z,1
1,1,147,test,2,male,Asian,,,,new,,,,m,956,True,False,,1,,,,False,327,AM-253,materials/cfd/Images/CFD/AM-253/CFD-AM-253-161-N.jpg,,,m,1
1,1,148,test,2,male,Black,,,,old,angry,female,,z,909,True,False,,1,,,,False,329,BM-228,materials/cfd/Images/CFD/BM-228/CFD-BM-228-145-N.jpg,,,z,1
1,1,149,test,2,male,White,,,,old,angry,male,,m,1202,False,False,,1,,,,False,331,WM-250,materials/cfd/Images/CFD/WM-250/CFD-WM-250-157-N.jpg,,,z,1
1,1,150,test,2,female,Black,,,,old,angry,male,,z,791,True,False,,1,,,,False,333,BF-040,materials/cfd/Images/CFD/BF-040/CFD-BF-040-003-N.jpg,,,z,1
1,1,151,test,2,male,White,,,,old,happy,female,,m,788,False,False,,1,,,,False,335,WM-252,materials/cfd/Images/CFD/WM-252/CFD-WM-252-224-N.jpg,,,z,1
1,1,152,test,2,female,Black,,,,old,happy,female,,z,894,True,False,,1,,,,False,337,BF-220,materials/cfd/Images/CFD/BF-220/CFD-BF-220-161-N.jpg,,,z,1
1,1,153,test,2,female,Asian,,,,old,angry,female,,m,924,False,False,,1,,,,False,339,AF-241,materials/cfd/Images/CFD/AF-241/CFD-AF-241-141-N.jpg,,,z,1
1,1,154,test,2,male,Black,,,,new,,,,z,2120,False,False,,1,,,,False,341,BM-202,materials/cfd/Images/CFD/BM-202/CFD-BM-202-063-N.jpg,,,m,1
1,1,155,test,2,male,Black,,,,new,,,,m,1035,True,False,,1,,,,False,343,BM-237,materials/cfd/Images/CFD/BM-237/CFD-BM-237-188-N.jpg,,,m,1
1,1,156,test,2,female,Asian,,,,new,,,,m,947,True,False,,1,,,,False,345,AF-226,materials/cfd/Images/CFD/AF-226/CFD-AF-226-251-N.jpg,,,m,1
1,1,157,test,2,male,Asian,,,,new,,,,m,623,True,False,,1,,,,False,347,AM-247,materials/cfd/Images/CFD/AM-247/CFD-AM-247-165-N.jpg,,,m,1
1,1,158,test,2,female,White,,,,new,,,,m,1218,True,False,,1,,,,False,349,WF-029,materials/cfd/Images/CFD/WF-029/CFD-WF-029-002-N.jpg,,,m,1
1,1,159,test,2,female,Black,,,,new,,,,m,1169,True,False,,1,,,,False,351,BF-018,materials/cfd/Images/CFD/BF-018/CFD-BF-018-039-N.jpg,,,m,1
1,1,160,test,2,male,Asian,,,,old,happy,male,,m,2573,False,False,,1,,,,False,353,AM-240,materials/cfd/Images/CFD/AM-240/CFD-AM-240-191-N.jpg,,,z,1
1,1,161,test,2,female,White,,,,new,,,,m,654,True,False,,1,,,,False,355,WF-224,materials/cfd/Images/CFD/WF-224/CFD-WF-224-099-N.jpg,,,m,1
1,1,162,test,2,male,White,,,,old,angry,male,,z,903,True,False,,1,,,,False,357,WM-244,materials/cfd/Images/CFD/WM-244/CFD-WM-244-003-N.jpg,,,z,1
1,1,163,test,2,female,White,,,,old,happy,female,,m,589,False,False,,1,,,,False,359,WF-037,materials/cfd/Images/CFD/WF-037/CFD-WF-037-029-N.jpg,,,z,1
1,1,164,test,2,male,Latino,,,,old,angry,female,,m,717,False,False,,1,,,,False,361,LM-230,materials/cfd/Images/CFD/LM-230/CFD-LM-230-202-N.jpg,,,z,1
1,1,165,test,2,male,White,,,,new,,,,m,727,True,False,,1,,,,False,363,WM-009,materials/cfd/Images/CFD/WM-009/CFD-WM-009-002-N.jpg,,,m,1
1,1,166,test,2,male,White,,,,new,,,,m,1060,True,False,,1,,,,False,365,WM-033,materials/cfd/Images/CFD/WM-033/CFD-WM-033-025-N.jpg,,,m,1
1,1,167,test,2,male,Asian,,,,old,neutral,female,,m,662,False,False,,1,,,,False,367,AM-230,materials/cfd/Images/CFD/AM-230/CFD-AM-230-150-N.jpg,,,z,1
1,1,168,test,2,male,White,,,,old,happy,male,,m,675,False,False,,1,,,,False,369,WM-004,materials/cfd/Images/CFD/WM-004/CFD-WM-004-010-N.jpg,,,z,1
1,1,169,test,2,male,Black,,,,new,,,,m,2013,True,False,,1,,,,False,371,BM-200,materials/cfd/Images/CFD/BM-200/CFD-BM-200-046-N.jpg,,,m,1
1,1,170,test,2,female,Asian,,,,old,happy,male,,m,731,False,False,,1,,,,False,373,AF-201,materials/cfd/Images/CFD/AF-201/CFD-AF-201-060-N.jpg,,,z,1
1,1,171,test,2,male,Latino,,,,new,,,,m,692,True,False,,1,,,,False,375,LM-247,materials/cfd/Images/CFD/LM-247/CFD-LM-247-095-N.jpg,,,m,1
1,1,172,test,2,male,White,,,,new,,,,m,762,True,False,,1,,,,False,377,WM-021,materials/cfd/Images/CFD/WM-021/CFD-WM-021-001-N.jpg,,,m,1
1,1,173,test,2,female,Asian,,,,new,,,,m,975,True,False,,1,,,,False,379,AF-253,materials/cfd/Images/CFD/AF-253/CFD-AF-253-130-N.jpg,,,m,1
1,1,174,test,2,female,Black,,,,new,,,,m,996,True,False,,1,,,,False,381,BF-023,materials/cfd/Images/CFD/BF-023/CFD-BF-023-010-N.jpg,,,m,1
1,1,175,test,2,female,Black,,,,new,,,,m,1037,True,False,,1,,,,False,383,BF-222,materials/cfd/Images/CFD/BF-222/CFD-BF-222-240-N.jpg,,,m,1
1,1,176,test,2,female,White,,,,old,happy,male,,z,1007,True,False,,1,,,,False,385,WF-207,materials/cfd/Images/CFD/WF-207/CFD-WF-207-014-N.jpg,,,z,1
1,1,177,test,2,male,Asian,,,,old,neutral,male,,z,2201,True,False,,1,,,,False,387,AM-205,materials/cfd/Images/CFD/AM-205/CFD-AM-205-153-N.jpg,,,z,1
1,1,178,test,2,male,White,,,,new,,,,m,855,True,False,,1,,,,False,389,WM-237,materials/cfd/Images/CFD/WM-237/CFD-WM-237-052-N.jpg,,,m,1
1,1,179,test,2,female,Asian,,,,new,,,,m,642,True,False,,1,,,,False,391,AF-246,materials/cfd/Images/CFD/AF-246/CFD-AF-246-242-N.jpg,,,m,1
1,1,180,test,2,female,Latino,,,,new,,,,,,False,True,,1,,,,False,393,LF-217,materials/cfd/Images/CFD/LF-217/CFD-LF-217-082-N.jpg,,,m,1
2,1,1,study,0,male,Black,female,Black,happy,,,,,m,1604,True,False,,1,,,,False,17,BM-046,materials/cfd/Images/CFD/BM-046/CFD-BM-046-006-N.jpg,BF-015,materials/cfd/Images/CFD/BF-015/CFD-BF-015-006-HO.jpg,m,1
2,1,2,study,0,male,Asian,male,Black,happy,,,,,m,682,True,False,,1,,,,False,19,AM-236,materials/cfd/Images/CFD/AM-236/CFD-AM-236-090-N.jpg,BM-003,materials/cfd/Images/CFD/BM-003/CFD-BM-003-021-HO.jpg,m,1
2,1,3,study,0,male,Black,female,White,angry,,,,,m,815,True,False,,1,,,,False,21,BM-011,materials/cfd/Images/CFD/BM-011/CFD-BM-011-016-N.jpg,WF-020,materials/cfd/Images/CFD/WF-020/CFD-WF-020-012-A.jpg,m,1
2,1,4,study,0,male,Asian,male,White,angry,,,,,m,796,True,False,,1,,,,False,23,AM-249,materials/cfd/Images/CFD/AM-249/CFD-AM-249-163-N.jpg,WM-002,materials/cfd/Images/CFD/WM-002/CFD-WM-002-017-A.jpg,m,1
2,1,5,study,0,male,Asian,male,White,neutral,,,,,m,643,True,False,,1,,,,False,25,AM-253,materials/cfd/Images/CFD/AM-253/CFD-AM-253-161-N.jpg,WM-220,materials/cfd/Images/CFD/WM-220/CFD-WM-220-068-N.jpg,m,1
2,1,6,study,0,female,Black,female,Black,happy,,,,,z,2084,True,False,,1,,,,False,27,BF-033,materials/cfd/Images/CFD/BF-033/CFD-BF-033-028-N.jpg,BF-014,materials/cfd/Images/CFD/BF-014/CFD-BF-014-004-HO.jpg,z,1
2,1,7,study,0,male,White,female,Black,happy,,,,,m,794,True,False,,1,,,,False,29,WM-028,materials/cfd/Images/CFD/WM-028/CFD-WM-028-003-N.jpg,BF-024,materials/cfd/Images/CFD/BF-024/CFD-BF-024-005-HO.jpg,m,1
2,1,8,study,0,male,Black,female,Black,angry,,,,,m,1252,True,False,,1,,,,False,31,BM-037,materials/cfd/Images/CFD/BM-037/CFD-BM-037-033-N.jpg,BF-003,materials/cfd/Images/CFD/BF-003/CFD-BF-003-016-A.jpg,m,1
2,1,9,study,0,female,Black,male,White,angry,,,,,z,1531,True,False,,1,,,,False,33,BF-204,materials/cfd/Images/CFD/BF-204/CFD-BF-204-189-N.jpg,WM-034,materials/cfd/Images/CFD/WM-034/CFD-WM-034-040-A.jpg,z,1
2,1,10,study,0,male,Latino,female,Black,angry,,,,,m,810,True,False,,1,,,,False,35,LM-207,materials/cfd/Images/CFD/LM-207/CFD-LM-207-004-N.jpg,BF-034,materials/cfd/Images/CFD/BF-034/CFD-BF-034-035-A.jpg,m,1
2,1,11,study,0,male,Latino,male,Black,happy,,,,,m,780,True,False,,1,,,,False,37,LM-221,materials/cfd/Images/CFD/LM-221/CFD-LM-221-216-N.jpg,BM-002,materials/cfd/Images/CFD/BM-002/CFD-BM-002-007-HO.jpg,m,1
2,1,12,study,0,female,Black,female,White,happy,,,,,z,986,True,False,,1,,,,False,39,BF-036,materials/cfd/Images/CFD/BF-036/CFD-BF-036-027-N.jpg,WF-013,materials/cfd/Images/CFD/WF-013/CFD-WF-013-006-HO.jpg,z,1
2,1,13,study,0,female,White,female,Black,neutral,,,,,z,802,True,False,,1,,,,False,41,WF-022,materials/cfd/Images/CFD/WF-022/CFD-WF-022-017-N.jpg,BF-202,materials/cfd/Images/CFD/BF-202/CFD-BF-202-109-N.jpg,z,1
2,1,14,study,0,female,White,female,Black,angry,,,,,z,705,True,False,,1,,,,False,43,WF-038,materials/cfd/Images/CFD/WF-038/CFD-WF-038-021-N.jpg,BF-038,materials/cfd/Images/CFD/BF-038/CFD-BF-038-029-A.jpg,z,1
2,1,15,study,0,female,Latino,female,White,neutral,,,,,z,734,True,False,,1,,,,False,45,LF-234,materials/cfd/Images/CFD/LF-234/CFD-LF-234-139-N.jpg,WF-018,materials/cfd/Images/CFD/WF-018/CFD-WF-018-017-N.jpg,z,1
2,1,16,study,0,male,Black,male,Black,angry,,,,,,,False,True,,1,,,,False,47,BM-221,materials/cfd/Images/CFD/BM-221/CFD-BM-221-198-N.jpg,BM-028,materials/cfd/Images/CFD/BM-028/CFD-BM-028-012-A.jpg,m,1
2,1,17,study,0,female,Asian,male,Black,happy,,,,,z,627,True,False,,1,,,,False,49,AF-200,materials/cfd/Images/CFD/AF-200/CFD-AF-200-228-N.jpg,BM-043,materials/cfd/Images/CFD/BM-043/CFD-BM-043-076-HO.jpg,z,1
2,1,18,study,0,male,Asian,male,White,happy,,,,,m,820,True,False,,1,,,,False,51,AM-215,materials/cfd/Images/CFD/AM-215/CFD-AM-215-120-N.jpg,WM-009,materials/cfd/Images/CFD/WM-009/CFD-WM-009-004-HO.jpg,m,1
2,1,19,study,0,male,Black,female,Black,neutral,,,,,m,560,True,False,,1,,,,False,53,BM-208,materials/cfd/Images/CFD/BM-208/CFD-BM-208-065-N.jpg,BF-245,materials/cfd/Images/CFD/BF-245/CFD-BF-245-178-N.jpg,m,1
2,1,20,study,0,female,White,female,White,angry,,,,,z,926,True,False,,1,,,,False,55,WF-021,materials/cfd/Images/CFD/WF-021/CFD-WF-021-002-N.jpg,WF-005,materials/cfd/Images/CFD/WF-005/CFD-WF-005-022-A.jpg,z,1
2,1,21,study,0,male,Latino,male,Black,neutral,,,,,m,1906,True,False,,1,,,,False,57,LM-236,materials/cfd/Images/CFD/LM-236/CFD-LM-236-163-N.jpg,BM-219,materials/cfd/Images/CFD/BM-219/CFD-BM-219-141-N.jpg,m,1
2,1,22,study,0,female,Latino,male,Black,happy,,,,,z,855,True,False,,1,,,,False,59,LF-232,materials/cfd/Images/CFD/LF-232/CFD-LF-232-199-N.jpg,BM-018,materials/cfd/Images/CFD/BM-018/CFD-BM-018-007-HO.jpg,z,1
2,1,23,study,0,female,Asian,male,White,angry,,,,,z,1756,True,False,,1,,,,False,61,AF-211,materials/cfd/Images/CFD/AF-211/CFD-AF-211-066-N.jpg,WM-032,materials/cfd/Images/CFD/WM-032/CFD-WM-032-014-A.jpg,z,1
2,1,24,study,0,female,Latino,female,Black,angry,,,,,z,1189,True,False,,1,,,,False,63,LF-215,materials/cfd/Images/CFD/LF-215/CFD-LF-215-157-N.jpg,BF-020,materials/cfd/Images/CFD/BF-020/CFD-BF-020-017-A.jpg,z,1
2,1,25,study,0,female,White,male,Black,neutral,,,,,z,730,True,False,,1,,,,False,65,WF-248,materials/cfd/Images/CFD/WF-248/CFD-WF-248-129-N.jpg,BM-210,materials/cfd/Images/CFD/BM-210/CFD-BM-210-148-N.jpg,z,1
2,1,26,study,0,female,Asian,male,Black,happy,,,,,z,679,True,False,,1,,,,False,67,AF-206,materials/cfd/Images/CFD/AF-206/CFD-AF-206-079-N.jpg,BM-045,materials/cfd/Images/CFD/BM-045/CFD-BM-045-055-HO.jpg,z,1
2,1,27,study,0,female,Black,female,Black,angry,,,,,z,790,True,False,,1,,,,False,69,BF-028,materials/cfd/Images/CFD/BF-028/CFD-BF-028-001-N.jpg,BF-007,materials/cfd/Images/CFD/BF-007/CFD-BF-007-013-A.jpg,z,1
2,1,28,study,0,male,Latino,female,Black,angry,,,,,m,929,True,False,,1,,,,False,71,LM-222,materials/cfd/Images/CFD/LM-222/CFD-LM-222-239-N.jpg,BF-002,materials/cfd/Images/CFD/BF-002/CFD-BF-002-018-A.jpg,m,1
2,1,29,study,0,female,Asian,female,Black,neutral,,,,,z,638,True,False,,1,,,,False,73,AF-220,materials/cfd/Images/CFD/AF-220/CFD-AF-220-107-N.jpg,BF-222,materials/cfd/Images/CFD/BF-222/CFD-BF-222-240-N.jpg,z,1
2,1,30,study,0,male,Black,female,White,neutral,,,,,m,486,True,False,,1,,,,False,75,BM-247,materials/cfd/Images/CFD/BM-247/CFD-BM-247-240-N.jpg,WF-006,materials/cfd/Images/CFD/WF-006/CFD-WF-006-002-N.jpg,m,1
2,1,31,study,1,male,Asian,female,White,happy,,,,,m,854,True,False,,1,,,,False,78,AM-227,materials/cfd/Images/CFD/AM-227/CFD-AM-227-184-N.jpg,WF-011,materials/cfd/Images/CFD/WF-011/CFD-WF-011-003-HO.jpg,m,1
2,1,32,study,1,male,Latino,male,White,happy,,,,,m,671,True,False,,1,,,,False,80,LM-201,materials/cfd/Images/CFD/LM-201/CFD-LM-201-057-N.jpg,WM-040,materials/cfd/Images/CFD/WM-040/CFD-WM-040-023-HO.jpg,m,1
2,1,33,study,1,male,Latino,female,White,neutral,,,,,m,505,True,False,,1,,,,False,82,LM-235,materials/cfd/Images/CFD/LM-235/CFD-LM-235-231-N.jpg,WF-245,materials/cfd/Images/CFD/WF-245/CFD-WF-245-084-N.jpg,m,1
2,1,34,study,1,female,Black,male,White,happy,,,,,z,675,True,False,,1,,,,False,84,BF-228,materials/cfd/Images/CFD/BF-228/CFD-BF-228-212-N.jpg,WM-029,materials/cfd/Images/CFD/WM-029/CFD-WM-029-029-HO.jpg,z,1
2,1,35,study,1,male,White,male,White,angry,,,,,m,1117,True,False,,1,,,,False,86,WM-229,materials/cfd/Images/CFD/WM-229/CFD-WM-229-129-N.jpg,WM-025,materials/cfd/Images/CFD/WM-025/CFD-WM-025-008-A.jpg,m,1
2,1,36,study,1,male,White,female,Black,neutral,,,,,m,759,True,False,,1,,,,False,88,WM-231,materials/cfd/Images/CFD/WM-231/CFD-WM-231-112-N.jpg,BF-032,materials/cfd/Images/CFD/BF-032/CFD-BF-032-038-N.jpg,m,1
2,1,37,study,1,female,Black,female,Black,happy,,,,,z,606,True,False,,1,,,,False,90,BF-013,materials/cfd/Images/CFD/BF-013/CFD-BF-013-001-N.jpg,BF-051,materials/cfd/Images/CFD/BF-051/CFD-BF-051-037-HO.jpg,z,1
2,1,38,study,1,female,Black,male,White,neutral,,,,,z,1300,True,False,,1,,,,False,92,BF-017,materials/cfd/Images/CFD/BF-017/CFD-BF-017-003-N.jpg,WM-233,materials/cfd/Images/CFD/WM-233/CFD-WM-233-106-N.jpg,z,1
2,1,39,study,1,male,White,female,White,happy,,,,,m,776,True,False,,1,,,,False,94,WM-223,materials/cfd/Images/CFD/WM-223/CFD-WM-223-056-N.jpg,WF-024,materials/cfd/Images/CFD/WF-024/CFD-WF-024-006-HO.jpg,m,1
2,1,40,study,1,female,Black,female,Black,happy,,,,,z,807,True,False,,1,,,,False,96,BF-031,materials/cfd/Images/CFD/BF-031/CFD-BF-031-002-N.jpg,BF-012,materials/cfd/Images/CFD/BF-012/CFD-BF-012-019-HO.jpg,z,1
2,1,41,study,1,male,Asian,male,Black,neutral,,,,,m,1139,True,False,,1,,,,False,98,AM-250,materials/cfd/Images/CFD/AM-250/CFD-AM-250-149-N.jpg,BM-031,materials/cfd/Images/CFD/BM-031/CFD-BM-031-003-N.jpg,m,1
2,1,42,study,1,female,White,male,Black,neutral,,,,,z,1139,True,False,,1,,,,False,100,WF-223,materials/cfd/Images/CFD/WF-223/CFD-WF-223-133-N.jpg,BM-044,materials/cfd/Images/CFD/BM-044/CFD-BM-044-001-N.jpg,z,1
2,1,43,study,1,male,Black,male,Black,happy,,,,,m,949,True,False,,1,,,,False,102,BM-211,materials/cfd/Images/CFD/BM-211/CFD-BM-211-174-N.jpg,BM-013,materials/cfd/Images/CFD/BM-013/CFD-BM-013-004-HO.jpg,m,1
2,1,44,study,1,female,Black,male,White,happy,,,,,z,1190,True,False,,1,,,,False,104,BF-207,materials/cfd/Images/CFD/BF-207/CFD-BF-207-004-N.jpg,WM-023,materials/cfd/Images/CFD/WM-023/CFD-WM-023-004-HO.jpg,z,1
2,1,45,study,1,female,Black,female,White,neutral,,,,,z,519,True,False,,1,,,,False,106,BF-042,materials/cfd/Images/CFD/BF-042/CFD-BF-042-026-N.jpg,WF-211,materials/cfd/Images/CFD/WF-211/CFD-WF-211-001-N.jpg,z,1
2,1,46,study,1,female,Black,male,Black,angry,,,,,z,1031,True,False,,1,,,,False,108,BF-246,materials/cfd/Images/CFD/BF-246/CFD-BF-246-170-N.jpg,BM-017,materials/cfd/Images/CFD/BM-017/CFD-BM-017-035-A.jpg,z,1
2,1,47,study,1,female,Latino,male,White,neutral,,,,,z,767,True,False,,1,,,,False,110,LF-245,materials/cfd/Images/CFD/LF-245/CFD-LF-245-166-N.jpg,WM-215,materials/cfd/Images/CFD/WM-215/CFD-WM-215-041-N.jpg,z,1
2,1,48,study,1,male,White,male,White,neutral,,,,,m,1253,True,False,,1,,,,False,112,WM-227,materials/cfd/Images/CFD/WM-227/CFD-WM-227-099-N.jpg,WM-010,materials/cfd/Images/CFD/WM-010/CFD-WM-010-001-N.jpg,m,1
2,1,49,study,1,male,Latino,female,White,neutral,,,,,m,658,True,False,,1,,,,False,114,LM-238,materials/cfd/Images/CFD/LM-238/CFD-LM-238-129-N.jpg,WF-200,materials/cfd/Images/CFD/WF-200/CFD-WF-200-099-N.jpg,m,1
2,1,50,study,1,female,Latino,male,White,angry,,,,,z,670,True,False,,1,,,,False,116,LF-216,materials/cfd/Images/CFD/LF-216/CFD-LF-216-121-N.jpg,WM-038,materials/cfd/Images/CFD/WM-038/CFD-WM-038-011-A.jpg,z,1
2,1,51,study,1,female,Black,female,White,happy,,,,,z,817,True,False,,1,,,,False,118,BF-243,materials/cfd/Images/CFD/BF-243/CFD-BF-243-164-N.jpg,WF-034,materials/cfd/Images/CFD/WF-034/CFD-WF-034-033-HO.jpg,z,1
2,1,52,study,1,female,Black,male,White,neutral,,,,,z,509,True,False,,1,,,,False,120,BF-253,materials/cfd/Images/CFD/BF-253/CFD-BF-253-202-N.jpg,WM-251,materials/cfd/Images/CFD/WM-251/CFD-WM-251-002-N.jpg,z,1
2,1,53,study,1,male,Asian,female,White,happy,,,,,m,1254,True,False,,1,,,,False,122,AM-242,materials/cfd/Images/CFD/AM-242/CFD-AM-242-176-N.jpg,WF-007,materials/cfd/Images/CFD/WF-007/CFD-WF-007-003-HO.jpg,m,1
2,1,54,study,1,female,Black,female,White,neutral,,,,,z,1237,True,False,,1,,,,False,124,BF-004,materials/cfd/Images/CFD/BF-004/CFD-BF-004-014-N.jpg,WF-241,materials/cfd/Images/CFD/WF-241/CFD-WF-241-210-N.jpg,z,1
2,1,55,study,1,female,Black,male,Black,angry,,,,,z,1031,True,False,,1,,,,False,126,BF-205,materials/cfd/Images/CFD/BF-205/CFD-BF-205-141-N.jpg,BM-010,materials/cfd/Images/CFD/BM-010/CFD-BM-010-019-A.jpg,z,1
2,1,56,study,1,male,White,male,Black,angry,,,,,m,797,True,False,,1,,,,False,128,WM-004,materials/cfd/Images/CFD/WM-004/CFD-WM-004-010-N.jpg,BM-033,materials/cfd/Images/CFD/BM-033/CFD-BM-033-032-A.jpg,m,1
2,1,57,study,1,male,Asian,male,Black,neutral,,,,,m,853,True,False,,1,,,,False,130,AM-252,materials/cfd/Images/CFD/AM-252/CFD-AM-252-114-N.jpg,BM-215,materials/cfd/Images/CFD/BM-215/CFD-BM-215-155-N.jpg,m,1
2,1,58,study,1,male,White,female,White,angry,,,,,m,1008,True,False,,1,,,,False,132,WM-238,materials/cfd/Images/CFD/WM-238/CFD-WM-238-020-N.jpg,WF-002,materials/cfd/Images/CFD/WF-002/CFD-WF-002-033-A.jpg,m,1
2,1,59,study,1,male,Latino,male,Black,angry,,,,,m,842,True,False,,1,,,,False,134,LM-229,materials/cfd/Images/CFD/LM-229/CFD-LM-229-187-N.jpg,BM-005,materials/cfd/Images/CFD/BM-005/CFD-BM-005-010-A.jpg,m,1
2,1,60,study,1,female,White,female,White,angry,,,,,z,601,True,False,,1,,,,False,136,WF-039,materials/cfd/Images/CFD/WF-039/CFD-WF-039-025-N.jpg,WF-014,materials/cfd/Images/CFD/WF-014/CFD-WF-014-012-A.jpg,z,1
2,1,61,test,0,male,Black,,,,new,,,,z,1641,False,False,,1,,,,False,153,BM-227,materials/cfd/Images/CFD/BM-227/CFD-BM-227-191-N.jpg,,,m,1
2,1,62,test,0,male,Black,,,,new,,,,m,2675,True,False,,1,,,,False,155,BM-212,materials/cfd/Images/CFD/BM-212/CFD-BM-212-117-N.jpg,,,m,1
2,1,63,test,0,female,Black,,,,old,happy,female,,z,1451,True,False,,1,,,,False,157,BF-013,materials/cfd/Images/CFD/BF-013/CFD-BF-013-001-N.jpg,,,z,1
2,1,64,test,0,male,Asian,,,,new,,,,z,1076,False,False,,1,,,,False,159,AM-207,materials/cfd/Images/CFD/AM-207/CFD-AM-207-108-N.jpg,,,m,1
2,1,65,test,0,male,Asian,,,,new,,,,,,False,True,,1,,,,False,161,AM-224,materials/cfd/Images/CFD/AM-224/CFD-AM-224-126-N.jpg,,,m,1
2,1,66,test,0,female,White,,,,new,,,,m,1068,True,False,,1,,,,False,163,WF-212,materials/cfd/Images/CFD/WF-212/CFD-WF-212-050-N.jpg,,,m,1
2,1,67,test,0,female,Black,,,,new,,,,m,2318,True,False,,1,,,,False,165,BF-223,materials/cfd/Images/CFD/BF-223/CFD-BF-223-250-N.jpg,,,m,1
2,1,68,test,0,male,Asian,,,,old,angry,male,,z,979,True,False,,1,,,,False,167,AM-249,materials/cfd/Images/CFD/AM-249/CFD-AM-249-163-N.jpg,,,z,1
2,1,69,test,0,male,Latino,,,,new,,,,m,1290,True,False,,1,,,,False,169,LM-226,materials/cfd/Images/CFD/LM-226/CFD-LM-226-175-N.jpg,,,m,1
2,1,70,test,0,male,Asian,,,,old,happy,female,,z,1686,True,False,,1,,,,False,171,AM-227,materials/cfd/Images/CFD/AM-227/CFD-AM-227-184-N.jpg,,,z,1
2,1,71,test,0,female,Asian,,,,new,,,,m,2231,True,False,,1,,,,False,173,AF-205,materials/cfd/Images/CFD/AF-205/CFD-AF-205-155-N.jpg,,,m,1
2,1,72,test,0,male,Asian,,,,old,happy,female,,z,1922,True,False,,1,,,,False,175,AM-242,materials/cfd/Images/CFD/AM-242/CFD-AM-242-176-N.jpg,,,z,1
2,1,73,test,0,male,Black,,,,new,,,,m,1044,True,False,,1,,,,False,177,BM-243,materials/cfd/Images/CFD/BM-243/CFD-BM-243-218-N.jpg,,,m,1
2,1,74,test,0,female,Black,,,,old,happy,female,,,,False,True,,1,,,,False,179,BF-243,materials/cfd/Images/CFD/BF-243/CFD-BF-243-164-N.jpg,,,z,1
2,1,75,test,0,male,White,,,,new,,,,z,1189,False,False,,1,,,,False,181,WM-217,materials/cfd/Images/CFD/WM-217/CFD-WM-217-070-N.jpg,,,m,1
2,1,76,test,0,male,Latino,,,,old,neutral,female,,m,1392,False,False,,1,,,,False,183,LM-238,materials/cfd/Images/CFD/LM-238/CFD-LM-238-129-N.jpg,,,z,1
2,1,77,test,0,female,White,,,,new,,,,z,1234,False,False,,1,,,,False,185,WF-233,materials/cfd/Images/CFD/WF-233/CFD-WF-233-112-N.jpg,,,m,1
2,1,78,test,0,female,Black,,,,old,angry,male,,m,1895,False,False,,1,,,,False,187,BF-246,materials/cfd/Images/CFD/BF-246/CFD-BF-246-170-N.jpg,,,z,1
2,1,79,test,0,male,Asian,,,,new,,,,m,1998,True,False,,1,,,,False,189,AM-219,materials/cfd/Images/CFD/AM-219/CFD-AM-219-101-N.jpg,,,m,1
2,1,80,test,0,male,Latino,,,,old,happy,male,,m,1407,False,False,,1,,,,False,191,LM-221,materials/cfd/Images/CFD/LM-221/CFD-LM-221-216-N.jpg,,,z,1
2,1,81,test,0,female,White,,,,new,,,,m,979,True,False,,1,,,,False,193,WF-028,materials/cfd/Images/CFD/WF-028/CFD-WF-028-023-N.jpg,,,m,1
2,1,82,test,0,female,White,,,,old,neutral,male,,m,1181,False,False,,1,,,,False,195,WF-248,materials/cfd/Images/CFD/WF-248/CFD-WF-248-129-N.jpg,,,z,1
2,1,83,test,0,male,Asian,,,,old,neutral,male,,m,1639,False,False,,1,,,,False,197,AM-252,materials/cfd/Images/CFD/AM-252/CFD-AM-252-114-N.jpg,,,z,1
2,1,84,test,0,male,White,,,,old,angry,male,,m,1517,False,False,,1,,,,False,199,WM-004,materials/cfd/Images/CFD/WM-004/CFD-WM-004-010-N.jpg,,,z,1
2,1,85,test,0,female,Asian,,,,new,,,,m,987,True,False,,1,,,,False,201,AF-219,materials/cfd/Images/CFD/AF-219/CFD-AF-219-106-N.jpg,,,m,1
2,1,86,test,0,female,Asian,,,,new,,,,m,2120,True,False,,1,,,,False,203,AF-253,materials/cfd/Images/CFD/AF-253/CFD-AF-253-130-N.jpg,,,m,1
2,1,87,test,0,male,White,,,,old,neutral,female,,m,1629,False,False,,1,,,,False,205,WM-231,materials/cfd/Images/CFD/WM-231/CFD-WM-231-112-N.jpg,,,z,1
2,1,88,test,0,female,Asian,,,,old,happy,male,,z,1852,True,False,,1,,,,False,207,AF-200,materials/cfd/Images/CFD/AF-200/CFD-AF-200-228-N.jpg,,,z,1
2,1,89,test,0,male,Latino,,,,old,happy,male,,z,1730,True,False,,1,,,,False,209,LM-201,materials/cfd/Images/CFD/LM-201/CFD-LM-201-057-N.jpg,,,z,1
2,1,90,test,0,male,Asian,,,,new,,,,m,2106,True,False,,1,,,,False,211,AM-241,materials/cfd/Images/CFD/AM-241/CFD-AM-241-287-N.jpg,,,m,1
2,1,91,test,0,male,White,,,,old,angry,male,,m,2545,False,False,,1,,,,False,213,WM-229,materials/cfd/Images/CFD/WM-229/CFD-WM-229-129-N.jpg,,,z,1
2,1,92,test,0,male,Black,,,,old,angry,male,,z,2422,True,False,,1,,,,False,215,BM-221,materials/cfd/Images/CFD/BM-221/CFD-BM-221-198-N.jpg,,,z,1
2,1,93,test,0,female,Black,,,,old,angry,male,,z,1421,True,False,,1,,,,False,217,BF-205,materials/cfd/Images/CFD/BF-205/CFD-BF-205-141-N.jpg,,,z,1
2,1,94,test,0,female,White,,,,old,angry,female,,z,2146,True,False,,1,,,,False,219,WF-038,materials/cfd/Images/CFD/WF-038/CFD-WF-038-021-N.jpg,,,z,1
2,1,95,test,0,female,Asian,,,,old,angry,male,,z,994,True,False,,1,,,,False,221,AF-211,materials/cfd/Images/CFD/AF-211/CFD-AF-211-066-N.jpg,,,z,1
2,1,96,test,0,male,Latino,,,,old,angry,female,,z,2340,True,False,,1,,,,False,223,LM-207,materials/cfd/Images/CFD/LM-207/CFD-LM-207-004-N.jpg,,,z,1
2,1,97,test,0,male,Latino,,,,old,neutral,male,,m,1465,False,False,,1,,,,False,225,LM-236,materials/cfd/Images/CFD/LM-236/CFD-LM-236-163-N.jpg,,,z,1
2,1,98,test,0,male,Asian,,,,old,happy,male,,m,1644,False,False,,1,,,,False,227,AM-215,materials/cfd/Images/CFD/AM-215/CFD-AM-215-120-N.jpg,,,z,1
2,1,99,test,0,female,White,,,,old,angry,female,,m,2458,False,False,,1,,,,False,229,WF-021,materials/cfd/Images/CFD/WF-021/CFD-WF-021-002-N.jpg,,,z,1
2,1,100,test,0,female,Asian,,,,new,,,,m,1673,True,False,,1,,,,False,231,AF-243,materials/cfd/Images/CFD/AF-243/CFD-AF-243-170-N.jpg,,,m,1
2,1,101,test,1,female,Latino,,,,new,,,,z,897,False,False,,1,,,,False,234,LF-229,materials/cfd/Images/CFD/LF-229/CFD-LF-229-164-N.jpg,,,m,1
2,1,102,test,1,male,Latino,,,,new,,,,z,1403,False,False,,1,,,,False,236,LM-214,materials/cfd/Images/CFD/LM-214/CFD-LM-214-165-N.jpg,,,m,1
2,1,103,test,1,male,Latino,,,,new,,,,m,1090,True,False,,1,,,,False,238,LM-218,materials/cfd/Images/CFD/LM-218/CFD-LM-218-183-N.jpg,,,m,1
2,1,104,test,1,female,Black,,,,old,happy,male,,z,1740,True,False,,1,,,,False,240,BF-207,materials/cfd/Images/CFD/BF-207/CFD-BF-207-004-N.jpg,,,z,1
2,1,105,test,1,male,Latino,,,,old,angry,male,,m,1320,False,False,,1,,,,False,242,LM-229,materials/cfd/Images/CFD/LM-229/CFD-LM-229-187-N.jpg,,,z,1
2,1,106,test,1,female,White,,,,old,angry,female,,m,1472,False,False,,1,,,,False,244,WF-039,materials/cfd/Images/CFD/WF-039/CFD-WF-039-025-N.jpg,,,z,1
2,1,107,test,1,male,Black,,,,old,happy,male,,m,1797,False,False,,1,,,,False,246,BM-211,materials/cfd/Images/CFD/BM-211/CFD-BM-211-174-N.jpg,,,z,1
2,1,108,test,1,male,Black,,,,old,neutral,female,,z,1729,True,False,,1,,,,False,248,BM-247,materials/cfd/Images/CFD/BM-247/CFD-BM-247-240-N.jpg,,,z,1
2,1,109,test,1,female,Latino,,,,old,angry,female,,z,1238,True,False,,1,,,,False,250,LF-215,materials/cfd/Images/CFD/LF-215/CFD-LF-215-157-N.jpg,,,z,1
2,1,110,test,1,female,White,,,,new,,,,m,1245,True,False,,1,,,,False,252,WF-016,materials/cfd/Images/CFD/WF-016/CFD-WF-016-015-N.jpg,,,m,1
2,1,111,test,1,male,Latino,,,,old,neutral,female,,m,1546,False,False,,1,,,,False,254,LM-235,materials/cfd/Images/CFD/LM-235/CFD-LM-235-231-N.jpg,,,z,1
2,1,112,test,1,male,Asian,,,,old,neutral,male,,z,1108,True,False,,1,,,,False,256,AM-250,materials/cfd/Images/CFD/AM-250/CFD-AM-250-149-N.jpg,,,z,1
2,1,113,test,1,female,Black,,,,old,neutral,female,,z,784,True,False,,1,,,,False,258,BF-004,materials/cfd/Images/CFD/BF-004/CFD-BF-004-014-N.jpg,,,z,1
2,1,114,test,1,male,Latino,,,,new,,,,z,1128,False,False,,1,,,,False,260,LM-232,materials/cfd/Images/CFD/LM-232/CFD-LM-232-204-N.jpg,,,m,1
2,1,115,test,1,male,Black,,,,new,,,,m,1161,True,False,,1,,,,False,262,BM-213,materials/cfd/Images/CFD/BM-213/CFD-BM-213-134-N.jpg,,,m,1
2,1,116,test,1,male,Black,,,,old,angry,female,,z,1052,True,False,,1,,,,False,264,BM-037,materials/cfd/Images/CFD/BM-037/CFD-BM-037-033-N.jpg,,,z,1
2,1,117,test,1,male,Black,,,,new,,,,z,1432,False,False,,1,,,,False,266,BM-041,materials/cfd/Images/CFD/BM-041/CFD-BM-041-035-N.jpg,,,m,1
2,1,118,test,1,male,Latino,,,,new,,,,m,959,True,False,,1,,,,False,268,LM-219,materials/cfd/Images/CFD/LM-219/CFD-LM-219-295-N.jpg,,,m,1
2,1,119,test,1,female,Black,,,,old,angry,male,,z,1618,True,False,,1,,,,False,270,BF-204,materials/cfd/Images/CFD/BF-204/CFD-BF-204-189-N.jpg,,,z,1
2,1,120,test,1,female,White,,,,old,neutral,female,,z,1662,True,False,,1,,,,False,272,WF-022,materials/cfd/Images/CFD/WF-022/CFD-WF-022-017-N.jpg,,,z,1
2,1,121,test,1,female,Latino,,,,new,,,,m,1078,True,False,,1,,,,False,274,LF-233,materials/cfd/Images/CFD/LF-233/CFD-LF-233-277-N.jpg,,,m,1
2,1,122,test,1,female,Asian,,,,new,,,,z,1747,False,False,,1,,,,False,276,AF-230,materials/cfd/Images/CFD/AF-230/CFD-AF-230-193-N.jpg,,,m,1
2,1,123,test,1,male,Black,,,,old,angry,female,,z,959,True,False,,1,,,,False,278,BM-011,materials/cfd/Images/CFD/BM-011/CFD-BM-011-016-N.jpg,,,z,1
2,1,124,test,1,male,Black,,,,old,happy,female,,z,909,True,False,,1,,,,False,280,BM-046,materials/cfd/Images/CFD/BM-046/CFD-BM-046-006-N.jpg,,,z,1
2,1,125,test,1,female,Black,,,,old,happy,female,,m,2063,False,False,,1,,,,False,282,BF-031,materials/cfd/Images/CFD/BF-031/CFD-BF-031-002-N.jpg,,,z,1
2,1,126,test,1,male,Latino,,,,new,,,,m,1261,True,False,,1,,,,False,284,LM-202,materials/cfd/Images/CFD/LM-202/CFD-LM-202-072-N.jpg,,,m,1
2,1,127,test,1,male,White,,,,old,angry,female,,z,789,True,False,,1,,,,False,286,WM-238,materials/cfd/Images/CFD/WM-238/CFD-WM-238-020-N.jpg,,,z,1
2,1,128,test,1,male,Latino,,,,new,,,,z,1195,False,False,,1,,,,False,288,LM-253,materials/cfd/Images/CFD/LM-253/CFD-LM-253-075-N.jpg,,,m,1
2,1,129,test,1,female,White,,,,new,,,,m,1887,True,False,,1,,,,False,290,WF-243,materials/cfd/Images/CFD/WF-243/CFD-WF-243-148-N.jpg,,,m,1
2,1,130,test,1,female,Latino,,,,new,,,,m,1464,True,False,,1,,,,False,292,LF-241,materials/cfd/Images/CFD/LF-241/CFD-LF-241-188-N.jpg,,,m,1
2,1,131,test,1,male,Latino,,,,new,,,,z,1430,False,False,,1,,,,False,294,LM-216,materials/cfd/Images/CFD/LM-216/CFD-LM-216-082-N.jpg,,,m,1
2,1,132,test,1,female,Black,,,,old,happy,female,,z,848,True,False,,1,,,,False,296,BF-033,materials/cfd/Images/CFD/BF-033/CFD-BF-033-028-N.jpg,,,z,1
2,1,133,test,1,female,White,,,,new,,,,m,724,True,False,,1,,,,False,298,WF-215,materials/cfd/Images/CFD/WF-215/CFD-WF-215-145-N.jpg,,,m,1
2,1,134,test,1,female,Asian,,,,old,happy,male,,m,1913,False,False,,1,,,,False,300,AF-206,materials/cfd/Images/CFD/AF-206/CFD-AF-206-079-N.jpg,,,z,1
2,1,135,test,1,female,Black,,,,new,,,,z,908,False,False,,1,,,,False,302,BF-229,materials/cfd/Images/CFD/BF-229/CFD-BF-229-179-N.jpg,,,m,1
2,1,136,test,1,female,Latino,,,,old,neutral,male,,m,925,False,False,,1,,,,False,304,LF-245,materials/cfd/Images/CFD/LF-245/CFD-LF-245-166-N.jpg,,,z,1
2,1,137,test,1,male,White,,,,old,happy,female,,m,953,False,False,,1,,,,False,306,WM-223,materials/cfd/Images/CFD/WM-223/CFD-WM-223-056-N.jpg,,,z,1
2,1,138,test,1,female,Asian,,,,new,,,,z,2421,False,False,,1,,,,False,308,AF-221,materials/cfd/Images/CFD/AF-221/CFD-AF-221-147-N.jpg,,,m,1
2,1,139,test,1,male,Latino,,,,new,,,,m,1825,True,False,,1,,,,False,310,LM-244,materials/cfd/Images/CFD/LM-244/CFD-LM-244-068-N.jpg,,,m,1
2,1,140,test,1,female,Asian,,,,new,,,,m,1332,True,False,,1,,,,False,312,AF-248,materials/cfd/Images/CFD/AF-248/CFD-AF-248-148-N.jpg,,,m,1
2,1,141,test,2,male,Latino,,,,old,angry,female,,m,1037,False,False,,1,,,,False,315,LM-222,materials/cfd/Images/CFD/LM-222/CFD-LM-222-239-N.jpg,,,z,1
2,1,142,test,2,male,Latino,,,,new,,,,m,873,True,False,,1,,,,False,317,LM-230,materials/cfd/Images/CFD/LM-230/CFD-LM-230-202-N.jpg,,,m,1
2,1,143,test,2,female,Black,,,,new,,,,z,1009,False,False,,1,,,,False,319,BF-201,materials/cfd/Images/CFD/BF-201/CFD-BF-201-080-N.jpg,,,m,1
2,1,144,test,2,female,Asian,,,,new,,,,m,1210,True,False,,1,,,,False,321,AF-229,materials/cfd/Images/CFD/AF-229/CFD-AF-229-160-N.jpg,,,m,1
2,1,145,test,2,female,Black,,,,old,neutral,male,,z,884,True,False,,1,,,,False,323,BF-253,materials/cfd/Images/CFD/BF-253/CFD-BF-253-202-N.jpg,,,z,1
2,1,146,test,2,female,Black,,,,new,,,,m,1013,True,False,,1,,,,False,325,BF-018,materials/cfd/Images/CFD/BF-018/CFD-BF-018-039-N.jpg,,,m,1
2,1,147,test,2,female,Black,,,,old,angry,female,,z,837,True,False,,1,,,,False,327,BF-028,materials/cfd/Images/CFD/BF-028/CFD-BF-028-001-N.jpg,,,z,1
2,1,148,test,2,male,Asian,,,,new,,,,m,1558,True,False,,1,,,,False,329,AM-229,materials/cfd/Images/CFD/AM-229/CFD-AM-229-224-N.jpg,,,m,1
2,1,149,test,2,female,Asian,,,,old,neutral,female,,z,921,True,False,,1,,,,False,331,AF-220,materials/cfd/Images/CFD/AF-220/CFD-AF-220-107-N.jpg,,,z,1
2,1,150,test,2,male,Black,,,,new,,,,m,2342,True,False,,1,,,,False,333,BM-202,materials/cfd/Images/CFD/BM-202/CFD-BM-202-063-N.jpg,,,m,1
2,1,151,test,2,female,Latino,,,,old,neutral,female,,m,976,False,False,,1,,,,False,335,LF-234,materials/cfd/Images/CFD/LF-234/CFD-LF-234-139-N.jpg,,,z,1
2,1,152,test,2,female,Latino,,,,old,angry,male,,m,2380,False,False,,1,,,,False,337,LF-216,materials/cfd/Images/CFD/LF-216/CFD-LF-216-121-N.jpg,,,z,1
2,1,153,test,2,male,Black,,,,old,neutral,female,,z,880,True,False,,1,,,,False,339,BM-208,materials/cfd/Images/CFD/BM-208/CFD-BM-208-065-N.jpg,,,z,1
2,1,154,test,2,male,Asian,,,,new,,,,z,921,False,False,,1,,,,False,341,AM-230,materials/cfd/Images/CFD/AM-230/CFD-AM-230-150-N.jpg,,,m,1
2,1,155,test,2,female,White,,,,new,,,,m,1599,True,False,,1,,,,False,343,WF-201,materials/cfd/Images/CFD/WF-201/CFD-WF-201-156-N.jpg,,,m,1
2,1,156,test,2,female,Black,,,,old,neutral,male,,z,1131,True,False,,1,,,,False,345,BF-017,materials/cfd/Images/CFD/BF-017/CFD-BF-017-003-N.jpg,,,z,1
2,1,157,test,2,female,Black,,,,old,happy,female,,z,848,True,False,,1,,,,False,347,BF-036,materials/cfd/Images/CFD/BF-036/CFD-BF-036-027-N.jpg,,,z,1
2,1,158,test,2,male,Black,,,,new,,,,z,816,False,False,,1,,,,False,349,BM-239,materials/cfd/Images/CFD/BM-239/CFD-BM-239-136-N.jpg,,,m,1
2,1,159,test,2,female,Black,,,,new,,,,m,1273,True,False,,1,,,,False,351,BF-221,materials/cfd/Images/CFD/BF-221/CFD-BF-221-223-N.jpg,,,m,1
2,1,160,test,2,male,Asian,,,,new,,,,m,1308,True,False,,1,,,,False,353,AM-223,materials/cfd/Images/CFD/AM-223/CFD-AM-223-138-N.jpg,,,m,1
2,1,161,test,2,male,Asian,,,,old,happy,male,,z,1084,True,False,,1,,,,False,355,AM-236,materials/cfd/Images/CFD/AM-236/CFD-AM-236-090-N.jpg,,,z,1
2,1,162,test,2,male,Black,,,,new,,,,z,1950,False,False,,1,,,,False,357,BM-223,materials/cfd/Images/CFD/BM-223/CFD-BM-223-171-N.jpg,,,m,1
2,1,163,test,2,male,White,,,,old,happy,female,,z,873,True,False,,1,,,,False,359,WM-028,materials/cfd/Images/CFD/WM-028/CFD-WM-028-003-N.jpg,,,z,1
2,1,164,test,2,female,White,,,,new,,,,z,2272,False,False,,1,,,,False,361,WF-225,materials/cfd/Images/CFD/WF-225/CFD-WF-225-101-N.jpg,,,m,1
2,1,165,test,2,female,Black,,,,new,,,,m,1496,True,False,,1,,,,False,363,BF-227,materials/cfd/Images/CFD/BF-227/CFD-BF-227-137-N.jpg,,,m,1
2,1,166,test,2,female,Latino,,,,old,happy,male,,z,1408,True,False,,1,,,,False,365,LF-232,materials/cfd/Images/CFD/LF-232/CFD-LF-232-199-N.jpg,,,z,1
2,1,167,test,2,female,Latino,,,,new,,,,z,929,False,False,,1,,,,False,367,LF-227,materials/cfd/Images/CFD/LF-227/CFD-LF-227-054-N.jpg,,,m,1
2,1,168,test,2,female,Black,,,,old,happy,male,,m,1755,False,False,,1,,,,False,369,BF-228,materials/cfd/Images/CFD/BF-228/CFD-BF-228-212-N.jpg,,,z,1
2,1,169,test,2,female,White,,,,old,neutral,male,,z,1426,True,False,,1,,,,False,371,WF-223,materials/cfd/Images/CFD/WF-223/CFD-WF-223-133-N.jpg,,,z,1
2,1,170,test,2,male,Asian,,,,new,,,,z,996,False,False,,1,,,,False,373,AM-248,materials/cfd/Images/CFD/AM-248/CFD-AM-248-104-N.jpg,,,m,1
2,1,171,test,2,male,White,,,,old,neutral,male,,m,1908,False,False,,1,,,,False,375,WM-227,materials/cfd/Images/CFD/WM-227/CFD-WM-227-099-N.jpg,,,z,1
2,1,172,test,2,male,Asian,,,,old,neutral,male,,z,1266,True,False,,1,,,,False,377,AM-253,materials/cfd/Images/CFD/AM-253/CFD-AM-253-161-N.jpg,,,z,1
2,1,173,test,2,female,Black,,,,old,neutral,female,,z,1019,True,False,,1,,,,False,379,BF-042,materials/cfd/Images/CFD/BF-042/CFD-BF-042-026-N.jpg,,,z,1
2,1,174,test,2,female,White,,,,new,,,,m,888,True,False,,1,,,,False,381,WF-237,materials/cfd/Images/CFD/WF-237/CFD-WF-237-067-N.jpg,,,m,1
2,1,175,test,2,male,White,,,,new,,,,z,1023,False,False,,1,,,,False,383,WM-218,materials/cfd/Images/CFD/WM-218/CFD-WM-218-074-N.jpg,,,m,1
2,1,176,test,2,female,Latino,,,,new,,,,z,1424,False,False,,1,,,,False,385,LF-235,materials/cfd/Images/CFD/LF-235/CFD-LF-235-219-N.jpg,,,m,1
2,1,177,test,2,male,White,,,,new,,,,m,948,True,False,,1,,,,False,387,WM-221,materials/cfd/Images/CFD/WM-221/CFD-WM-221-091-N.jpg,,,m,1
2,1,178,test,2,female,Black,,,,new,,,,z,1246,False,False,,1,,,,False,389,BF-023,materials/cfd/Images/CFD/BF-023/CFD-BF-023-010-N.jpg,,,m,1
2,1,179,test,2,female,Black,,,,new,,,,z,1013,False,False,,1,,,,False,391,BF-206,materials/cfd/Images/CFD/BF-206/CFD-BF-206-143-N.jpg,,,m,1
2,1,180,test,2,male,White,,,,new,,,,m,952,True,False,,1,,,,False,393,WM-016,materials/cfd/Images/CFD/WM-016/CFD-WM-016-001-N.jpg,,,m,1
3,1,1,study,0,male,Black,female,White,neutral,,,,,m,529,True,False,,1,,,,False,17,BM-041,materials/cfd/Images/CFD/BM-041/CFD-BM-041-035-N.jpg,WF-244,materials/cfd/Images/CFD/WF-244/CFD-WF-244-163-N.jpg,m,1
3,1,2,study,0,female,White,female,White,neutral,,,,,z,441,True,False,,1,,,,False,19,WF-222,materials/cfd/Images/CFD/WF-222/CFD-WF-222-092-N.jpg,WF-037,materials/cfd/Images/CFD/WF-037/CFD-WF-037-029-N.jpg,z,1
3,1,3,study,0,female,Black,male,White,neutral,,,,,z,787,True,False,,1,,,,False,21,BF-009,materials/cfd/Images/CFD/BF-009/CFD-BF-009-002-N.jpg,WM-250,materials/cfd/Images/CFD/WM-250/CFD-WM-250-157-N.jpg,z,1
3,1,4,study,0,male,Asian,male,White,neutral,,,,,m,578,True,False,,1,,,,False,23,AM-250,materials/cfd/Images/CFD/AM-250/CFD-AM-250-149-N.jpg,WM-010,materials/cfd/Images/CFD/WM-010/CFD-WM-010-001-N.jpg,m,1
3,1,5,study,0,male,Black,female,White,happy,,,,,m,503,True,False,,1,,,,False,25,BM-243,materials/cfd/Images/CFD/BM-243/CFD-BM-243-218-N.jpg,WF-010,materials/cfd/Images/CFD/WF-010/CFD-WF-010-006-HO.jpg,m,1
3,1,6,study,0,male,Asian,male,Black,neutral,,,,,m,520,True,False,,1,,,,False,27,AM-243,materials/cfd/Images/CFD/AM-243/CFD-AM-243-212-N.jpg,BM-203,materials/cfd/Images/CFD/BM-203/CFD-BM-203-001-N.jpg,m,1
3,1,7,study,0,male,Black,male,Black,angry,,,,,m,573,True,False,,1,,,,False,29,BM-217,materials/cfd/Images/CFD/BM-217/CFD-BM-217-082-N.jpg,BM-009,materials/cfd/Images/CFD/BM-009/CFD-BM-009-008-A.jpg,m,1
3,1,8,study,0,male,Asian,female,Black,neutral,,,,,m,595,True,False,,1,,,,False,31,AM-232,materials/cfd/Images/CFD/AM-232/CFD-AM-232-251-N.jpg,BF-212,materials/cfd/Images/CFD/BF-212/CFD-BF-212-315-N.jpg,m,1
3,1,9,study,0,female,Latino,male,White,neutral,,,,,z,518,True,False,,1,,,,False,33,LF-213,materials/cfd/Images/CFD/LF-213/CFD-LF-213-079-N.jpg,WM-219,materials/cfd/Images/CFD/WM-219/CFD-WM-219-008-N.jpg,z,1
3,1,10,study,0,male,White,female,Black,angry,,,,,m,552,True,False,,1,,,,False,35,WM-002,materials/cfd/Images/CFD/WM-002/CFD-WM-002-009-N.jpg,BF-004,materials/cfd/Images/CFD/BF-004/CFD-BF-004-021-A.jpg,m,1
3,1,11,study,0,male,Asian,female,Black,neutral,,,,,m,496,True,False,,1,,,,False,37,AM-246,materials/cfd/Images/CFD/AM-246/CFD-AM-246-184-N.jpg,BF-012,materials/cfd/Images/CFD/BF-012/CFD-BF-012-001-N.jpg,m,1
3,1,12,study,0,female,Black,male,White,neutral,,,,,z,808,True,False,,1,,,,False,39,BF-217,materials/cfd/Images/CFD/BF-217/CFD-BF-217-189-N.jpg,WM-032,materials/cfd/Images/CFD/WM-032/CFD-WM-032-001-N.jpg,z,1
3,1,13,study,0,male,Latino,male,Black,angry,,,,,m,884,True,False,,1,,,,False,41,LM-210,materials/cfd/Images/CFD/LM-210/CFD-LM-210-156-N.jpg,BM-016,materials/cfd/Images/CFD/BM-016/CFD-BM-016-042-A.jpg,m,1
3,1,14,study,0,female,White,female,White,neutral,,,,,z,1162,True,False,,1,,,,False,43,WF-251,materials/cfd/Images/CFD/WF-251/CFD-WF-251-014-N.jpg,WF-020,materials/cfd/Images/CFD/WF-020/CFD-WF-020-002-N.jpg,z,1
3,1,15,study,0,male,Black,male,Black,happy,,,,,m,796,True,False,,1,,,,False,45,BM-028,materials/cfd/Images/CFD/BM-028/CFD-BM-028-002-N.jpg,BM-046,materials/cfd/Images/CFD/BM-046/CFD-BM-046-039-HO.jpg,m,1
3,1,16,study,0,female,Black,female,Black,happy,,,,,z,966,True,False,,1,,,,False,47,BF-246,materials/cfd/Images/CFD/BF-246/CFD-BF-246-170-N.jpg,BF-010,materials/cfd/Images/CFD/BF-010/CFD-BF-010-003-HO.jpg,z,1
3,1,17,study,0,female,Black,male,Black,angry,,,,,z,1058,True,False,,1,,,,False,49,BF-252,materials/cfd/Images/CFD/BF-252/CFD-BF-252-191-N.jpg,BM-005,materials/cfd/Images/CFD/BM-005/CFD-BM-005-010-A.jpg,z,1
3,1,18,study,0,male,Black,female,Black,angry,,,,,m,1187,True,False,,1,,,,False,51,BM-221,materials/cfd/Images/CFD/BM-221/CFD-BM-221-198-N.jpg,BF-038,materials/cfd/Images/CFD/BF-038/CFD-BF-038-029-A.jpg,m,1
3,1,19,study,0,female,White,male,Black,happy,,,,,z,1088,True,False,,1,,,,False,53,WF-224,materials/cfd/Images/CFD/WF-224/CFD-WF-224-099-N.jpg,BM-044,materials/cfd/Images/CFD/BM-044/CFD-BM-044-037-HO.jpg,z,1
3,1,20,study,0,female,Black,male,White,angry,,,,,z,1070,True,False,,1,,,,False,55,BF-233,materials/cfd/Images/CFD/BF-233/CFD-BF-233-116-N.jpg,WM-021,materials/cfd/Images/CFD/WM-021/CFD-WM-021-009-A.jpg,z,1
3,1,21,study,0,female,White,male,White,angry,,,,,z,791,True,False,,1,,,,False,57,WF-204,materials/cfd/Images/CFD/WF-204/CFD-WF-204-038-N.jpg,WM-037,materials/cfd/Images/CFD/WM-037/CFD-WM-037-060-A.jpg,z,1
3,1,22,study,0,male,Black,male,White,happy,,,,,m,867,True,False,,1,,,,False,59,BM-234,materials/cfd/Images/CFD/BM-234/CFD-BM-234-172-N.jpg,WM-033,materials/cfd/Images/CFD/WM-033/CFD-WM-033-007-HO.jpg,m,1
3,1,23,study,0,female,Latino,female,Black,happy,,,,,z,761,True,False,,1,,,,False,61,LF-251,materials/cfd/Images/CFD/LF-251/CFD-LF-251-057-N.jpg,BF-017,materials/cfd/Images/CFD/BF-017/CFD-BF-017-004-HO.jpg,z,1
3,1,24,study,0,female,Black,male,Black,happy,,,,,z,926,True,False,,1,,,,False,63,BF-204,materials/cfd/Images/CFD/BF-204/CFD-BF-204-189-N.jpg,BM-019,materials/cfd/Images/CFD/BM-019/CFD-BM-019-004-HO.jpg,z,1
3,1,25,study,0,male,Black,female,Black,angry,,,,,m,960,True,False,,1,,,,False,65,BM-248,materials/cfd/Images/CFD/BM-248/CFD-BM-248-128-N.jpg,BF-001,materials/cfd/Images/CFD/BF-001/CFD-BF-001-026-A.jpg,m,1
3,1,26,study,0,male,White,male,White,angry,,,,,m,965,True,False,,1,,,,False,67,WM-208,materials/cfd/Images/CFD/WM-208/CFD-WM-208-068-N.jpg,WM-006,materials/cfd/Images/CFD/WM-006/CFD-WM-006-022-A.jpg,m,1
3,1,27,study,0,female,Latino,male,White,happy,,,,,z,988,True,False,,1,,,,False,69,LF-231,materials/cfd/Images/CFD/LF-231/CFD-LF-231-260-N.jpg,WM-016,materials/cfd/Images/CFD/WM-016/CFD-WM-016-002-HO.jpg,z,1
3,1,28,study,0,male,Black,male,White,angry,,,,,m,864,True,False,,1,,,,False,71,BM-004,materials/cfd/Images/CFD/BM-004/CFD-BM-004-002-N.jpg,WM-041,materials/cfd/Images/CFD/WM-041/CFD-WM-041-009-A.jpg,m,1
3,1,29,study,0,female,White,female,White,happy,,,,,z,941,True,False,,1,,,,False,73,WF-205,materials/cfd/Images/CFD/WF-205/CFD-WF-205-006-N.jpg,WF-013,materials/cfd/Images/CFD/WF-013/CFD-WF-013-006-HO.jpg,z,1
3,1,30,study,0,male,Asian,female,Black,angry,,,,,m,956,True,False,,1,,,,False,75,AM-227,materials/cfd/Images/CFD/AM-227/CFD-AM-227-184-N.jpg,BF-047,materials/cfd/Images/CFD/BF-047/CFD-BF-047-046-A.jpg,m,1
3,1,31,study,1,female,Asian,male,Black,angry,,,,,z,766,True,False,,1,,,,False,78,AF-255,materials/cfd/Images/CFD/AF-255/CFD-AF-255-209-N.jpg,BM-026,materials/cfd/Images/CFD/BM-026/CFD-BM-026-017-A.jpg,z,1
3,1,32,study,1,female,White,female,White,angry,,,,,z,988,True,False,,1,,,,False,80,WF-248,materials/cfd/Images/CFD/WF-248/CFD-WF-248-129-N.jpg,WF-017,materials/cfd/Images/CFD/WF-017/CFD-WF-017-023-A.jpg,z,1
3,1,33,study,1,female,Asian,male,White,neutral,,,,,z,1147,True,False,,1,,,,False,82,AF-221,materials/cfd/Images/CFD/AF-221/CFD-AF-221-147-N.jpg,WM-001,materials/cfd/Images/CFD/WM-001/CFD-WM-001-014-N.jpg,z,1
3,1,34,study,1,male,Asian,female,White,happy,,,,,m,1043,True,False,,1,,,,False,84,AM-213,materials/cfd/Images/CFD/AM-213/CFD-AM-213-056-N.jpg,WF-001,materials/cfd/Images/CFD/WF-001/CFD-WF-001-009-HO.jpg,m,1
3,1,35,study,1,male,White,male,Black,happy,,,,,m,1088,True,False,,1,,,,False,86,WM-018,materials/cfd/Images/CFD/WM-018/CFD-WM-018-002-N.jpg,BM-015,materials/cfd/Images/CFD/BM-015/CFD-BM-015-016-HO.jpg,m,1
3,1,36,study,1,male,Black,female,Black,angry,,,,,m,1154,True,False,,1,,,,False,88,BM-200,materials/cfd/Images/CFD/BM-200/CFD-BM-200-046-N.jpg,BF-036,materials/cfd/Images/CFD/BF-036/CFD-BF-036-020-A.jpg,m,1
3,1,37,study,1,male,White,male,Black,angry,,,,,m,970,True,False,,1,,,,False,90,WM-235,materials/cfd/Images/CFD/WM-235/CFD-WM-235-147-N.jpg,BM-022,materials/cfd/Images/CFD/BM-022/CFD-BM-022-030-A.jpg,m,1
3,1,38,study,1,female,Black,female,Black,angry,,,,,z,865,True,False,,1,,,,False,92,BF-005,materials/cfd/Images/CFD/BF-005/CFD-BF-005-001-N.jpg,BF-002,materials/cfd/Images/CFD/BF-002/CFD-BF-002-018-A.jpg,z,1
3,1,39,study,1,female,Black,male,White,angry,,,,,z,1062,True,False,,1,,,,False,94,BF-044,materials/cfd/Images/CFD/BF-044/CFD-BF-044-034-N.jpg,WM-012,materials/cfd/Images/CFD/WM-012/CFD-WM-012-015-A.jpg,z,1
3,1,40,study,1,male,Black,female,Black,happy,,,,,m,934,True,False,,1,,,,False,96,BM-227,materials/cfd/Images/CFD/BM-227/CFD-BM-227-191-N.jpg,BF-015,materials/cfd/Images/CFD/BF-015/CFD-BF-015-006-HO.jpg,m,1
3,1,41,study,1,female,Latino,female,Black,angry,,,,,z,955,True,False,,1,,,,False,98,LF-248,materials/cfd/Images/CFD/LF-248/CFD-LF-248-160-N.jpg,BF-019,materials/cfd/Images/CFD/BF-019/CFD-BF-019-023-A.jpg,z,1
3,1,42,study,1,female,White,female,White,happy,,,,,z,1239,True,False,,1,,,,False,100,WF-241,materials/cfd/Images/CFD/WF-241/CFD-WF-241-210-N.jpg,WF-019,materials/cfd/Images/CFD/WF-019/CFD-WF-019-035-HO.jpg,z,1
3,1,43,study,1,male,Latino,male,Black,happy,,,,,m,944,True,False,,1,,,,False,102,LM-202,materials/cfd/Images/CFD/LM-202/CFD-LM-202-072-N.jpg,BM-023,materials/cfd/Images/CFD/BM-023/CFD-BM-023-006-HO.jpg,m,1
3,1,44,study,1,female,Asian,female,White,angry,,,,,z,1087,True,False,,1,,,,False,104,AF-254,materials/cfd/Images/CFD/AF-254/CFD-AF-254-167-N.jpg,WF-038,materials/cfd/Images/CFD/WF-038/CFD-WF-038-030-A.jpg,z,1
3,1,45,study,1,male,Latino,female,White,neutral,,,,,m,955,True,False,,1,,,,False,106,LM-216,materials/cfd/Images/CFD/LM-216/CFD-LM-216-082-N.jpg,WF-023,materials/cfd/Images/CFD/WF-023/CFD-WF-023-003-N.jpg,m,1
3,1,46,study,1,female,Black,female,Black,neutral,,,,,z,1120,True,False,,1,,,,False,108,BF-255,materials/cfd/Images/CFD/BF-255/CFD-BF-255-140-N.jpg,BF-221,materials/cfd/Images/CFD/BF-221/CFD-BF-221-223-N.jpg,z,1
3,1,47,study,1,female,Latino,female,Black,happy,,,,,z,1063,True,False,,1,,,,False,110,LF-218,materials/cfd/Images/CFD/LF-218/CFD-LF-218-072-N.jpg,BF-027,materials/cfd/Images/CFD/BF-027/CFD-BF-027-006-HO.jpg,z,1
3,1,48,study,1,female,Asian,female,White,angry,,,,,z,955,True,False,,1,,,,False,112,AF-236,materials/cfd/Images/CFD/AF-236/CFD-AF-236-145-N.jpg,WF-014,materials/cfd/Images/CFD/WF-014/CFD-WF-014-012-A.jpg,z,1
3,1,49,study,1,male,Black,male,White,neutral,,,,,m,935,True,False,,1,,,,False,114,BM-033,materials/cfd/Images/CFD/BM-033/CFD-BM-033-003-N.jpg,WM-237,materials/cfd/Images/CFD/WM-237/CFD-WM-237-052-N.jpg,m,1
3,1,50,study,1,male,Asian,female,Black,happy,,,,,m,869,True,False,,1,,,,False,116,AM-212,materials/cfd/Images/CFD/AM-212/CFD-AM-212-050-N.jpg,BF-029,materials/cfd/Images/CFD/BF-029/CFD-BF-029-005-HO.jpg,m,1
3,1,51,study,1,male,Asian,female,Black,neutral,,,,,m,1136,True,False,,1,,,,False,118,AM-249,materials/cfd/Images/CFD/AM-249/CFD-AM-249-163-N.jpg,BF-250,materials/cfd/Images/CFD/BF-250/CFD-BF-250-121-N.jpg,m,1
3,1,52,study,1,female,Black,male,Black,happy,,,,,z,1026,True,False,,1,,,,False,120,BF-237,materials/cfd/Images/CFD/BF-237/CFD-BF-237-172-N.jpg,BM-038,materials/cfd/Images/CFD/BM-038/CFD-BM-038-007-HO.jpg,z,1
3,1,53,study,1,female,Black,male,White,neutral,,,,,z,865,True,False,,1,,,,False,122,BF-031,materials/cfd/Images/CFD/BF-031/CFD-BF-031-002-N.jpg,WM-017,materials/cfd/Images/CFD/WM-017/CFD-WM-017-002-N.jpg,z,1
3,1,54,study,1,female,Black,female,White,neutral,,,,,z,961,True,False,,1,,,,False,124,BF-202,materials/cfd/Images/CFD/BF-202/CFD-BF-202-109-N.jpg,WF-006,materials/cfd/Images/CFD/WF-006/CFD-WF-006-002-N.jpg,z,1
3,1,55,study,1,female,White,male,Black,happy,,,,,z,1214,True,False,,1,,,,False,126,WF-012,materials/cfd/Images/CFD/WF-012/CFD-WF-012-002-N.jpg,BM-043,materials/cfd/Images/CFD/BM-043/CFD-BM-043-076-HO.jpg,z,1
3,1,56,study,1,male,White,male,White,neutral,,,,,m,928,True,False,,1,,,,False,128,WM-203,materials/cfd/Images/CFD/WM-203/CFD-WM-203-023-N.jpg,WM-028,materials/cfd/Images/CFD/WM-028/CFD-WM-028-003-N.jpg,m,1
3,1,57,study,1,male,Black,male,White,happy,,,,,m,1004,True,False,,1,,,,False,130,BM-032,materials/cfd/Images/CFD/BM-032/CFD-BM-032-024-N.jpg,WM-039,materials/cfd/Images/CFD/WM-039/CFD-WM-039-008-HO.jpg,m,1
3,1,58,study,1,female,Latino,female,White,neutral,,,,,z,881,True,False,,1,,,,False,132,LF-219,materials/cfd/Images/CFD/LF-219/CFD-LF-219-223-N.jpg,WF-250,materials/cfd/Images/CFD/WF-250/CFD-WF-250-167-N.jpg,z,1
3,1,59,study,1,male,Latino,male,White,neutral,,,,,m,926,True,False,,1,,,,False,134,LM-208,materials/cfd/Images/CFD/LM-208/CFD-LM-208-110-N.jpg,WM-222,materials/cfd/Images/CFD/WM-222/CFD-WM-222-057-N.jpg,m,1
3,1,60,study,1,male,Asian,female,White,happy,,,,,m,891,True,False,,1,,,,False,136,AM-214,materials/cfd/Images/CFD/AM-214/CFD-AM-214-168-N.jpg,WF-022,materials/cfd/Images/CFD/WF-022/CFD-WF-022-019-HO.jpg,m,1
3,1,61,test,0,male,White,,,,new,,,,z,1140,False,False,,1,,,,False,153,WM-231,materials/cfd/Images/CFD/WM-231/CFD-WM-231-112-N.jpg,,,m,1
3,1,62,test,0,male,Asian,,,,old,happy,female,,z,1660,True,False,,1,,,,False,155,AM-214,materials/cfd/Images/CFD/AM-214/CFD-AM-214-168-N.jpg,,,z,1
3,1,63,test,0,male,Asian,,,,old,neutral,male,,m,923,False,False,,1,,,,False,157,AM-250,materials/cfd/Images/CFD/AM-250/CFD-AM-250-149-N.jpg,,,z,1
3,1,64,test,0,female,Asian,,,,old,neutral,male,,z,907,True,False,,1,,,,False,159,AF-221,materials/cfd/Images/CFD/AF-221/CFD-AF-221-147-N.jpg,,,z,1
3,1,65,test,0,male,White,,,,old,angry,male,,m,805,False,False,,1,,,,False,161,WM-208,materials/cfd/Images/CFD/WM-208/CFD-WM-208-068-N.jpg,,,z,1
3,1,66,test,0,male,Latino,,,,new,,,,m,1043,True,False,,1,,,,False,163,LM-234,materials/cfd/Images/CFD/LM-234/CFD-LM-234-176-N.jpg,,,m,1
3,1,67,test,0,female,Black,,,,old,happy,male,,m,1334,False,False,,1,,,,False,165,BF-204,materials/cfd/Images/CFD/BF-204/CFD-BF-204-189-N.jpg,,,z,1
3,1,68,test,0,female,Black,,,,old,angry,male,,z,802,True,False,,1,,,,False,167,BF-044,materials/cfd/Images/CFD/BF-044/CFD-BF-044-034-N.jpg,,,z,1
3,1,69,test,0,male,Asian,,,,old,neutral,female,,z,986,True,False,,1,,,,False,169,AM-249,materials/cfd/Images/CFD/AM-249/CFD-AM-249-163-N.jpg,,,z,1
3,1,70,test,0,male,Latino,,,,new,,,,m,1138,True,False,,1,,,,False,171,LM-235,materials/cfd/Images/CFD/LM-235/CFD-LM-235-231-N.jpg,,,m,1
3,1,71,test,0,male,White,,,,new,,,,m,1094,True,False,,1,,,,False,173,WM-248,materials/cfd/Images/CFD/WM-248/CFD-WM-248-036-N.jpg,,,m,1
3,1,72,test,0,male,Latino,,,,old,neutral,female,,m,1182,False,False,,1,,,,False,175,LM-216,materials/cfd/Images/CFD/LM-216/CFD-LM-216-082-N.jpg,,,z,1
3,1,73,test,0,male,Asian,,,,old,happy,female,,m,834,False,False,,1,,,,False,177,AM-213,materials/cfd/Images/CFD/AM-213/CFD-AM-213-056-N.jpg,,,z,1
3,1,74,test,0,female,Asian,,,,new,,,,z,1135,False,False,,1,,,,False,179,AF-250,materials/cfd/Images/CFD/AF-250/CFD-AF-250-200-N.jpg,,,m,1
3,1,75,test,0,female,Latino,,,,old,happy,male,,z,1087,True,False,,1,,,,False,181,LF-231,materials/cfd/Images/CFD/LF-231/CFD-LF-231-260-N.jpg,,,z,1
3,1,76,test,0,male,White,,,,old,happy,male,,z,872,True,False,,1,,,,False,183,WM-018,materials/cfd/Images/CFD/WM-018/CFD-WM-018-002-N.jpg,,,z,1
3,1,77,test,0,male,Latino,,,,old,neutral,male,,z,802,True,False,,1,,,,False,185,LM-208,materials/cfd/Images/CFD/LM-208/CFD-LM-208-110-N.jpg,,,z,1
3,1,78,test,0,male,Asian,,,,new,,,,m,1024,True,False,,1,,,,False,187,AM-237,materials/cfd/Images/CFD/AM-237/CFD-AM-237-154-N.jpg,,,m,1
3,1,79,test,0,female,Black,,,,old,neutral,female,,z,890,True,False,,1,,,,False,189,BF-255,materials/cfd/Images/CFD/BF-255/CFD-BF-255-140-N.jpg,,,z,1
3,1,80,test,0,male,Black,,,,old,angry,female,,z,1308,True,False,,1,,,,False,191,BM-221,materials/cfd/Images/CFD/BM-221/CFD-BM-221-198-N.jpg,,,z,1
3,1,81,test,0,female,Asian,,,,new,,,,m,928,True,False,,1,,,,False,193,AF-223,materials/cfd/Images/CFD/AF-223/CFD-AF-223-183-N.jpg,,,m,1
3,1,82,test,0,female,White,,,,old,angry,male,,z,1450,True,False,,1,,,,False,195,WF-204,materials/cfd/Images/CFD/WF-204/CFD-WF-204-038-N.jpg,,,z,1
3,1,83,test,0,male,Black,,,,old,angry,female,,z,954,True,False,,1,,,,False,197,BM-248,materials/cfd/Images/CFD/BM-248/CFD-BM-248-128-N.jpg,,,z,1
3,1,84,test,0,female,White,,,,new,,,,m,1048,True,False,,1,,,,False,199,WF-208,materials/cfd/Images/CFD/WF-208/CFD-WF-208-068-N.jpg,,,m,1
3,1,85,test,0,female,Latino,,,,new,,,,z,1169,False,False,,1,,,,False,201,LF-232,materials/cfd/Images/CFD/LF-232/CFD-LF-232-199-N.jpg,,,m,1
3,1,86,test,0,male,Asian,,,,old,happy,female,,m,918,False,False,,1,,,,False,203,AM-212,materials/cfd/Images/CFD/AM-212/CFD-AM-212-050-N.jpg,,,z,1
3,1,87,test,0,male,Black,,,,new,,,,m,1130,True,False,,1,,,,False,205,BM-205,materials/cfd/Images/CFD/BM-205/CFD-BM-205-001-N.jpg,,,m,1
3,1,88,test,0,female,White,,,,old,neutral,female,,z,1377,True,False,,1,,,,False,207,WF-222,materials/cfd/Images/CFD/WF-222/CFD-WF-222-092-N.jpg,,,z,1
3,1,89,test,0,male,White,,,,old,neutral,male,,m,924,False,False,,1,,,,False,209,WM-203,materials/cfd/Images/CFD/WM-203/CFD-WM-203-023-N.jpg,,,z,1
3,1,90,test,0,female,Black,,,,new,,,,m,1349,True,False,,1,,,,False,211,BF-243,materials/cfd/Images/CFD/BF-243/CFD-BF-243-164-N.jpg,,,m,1
3,1,91,test,0,female,White,,,,new,,,,m,1671,True,False,,1,,,,False,213,WF-221,materials/cfd/Images/CFD/WF-221/CFD-WF-221-005-N.jpg,,,m,1
3,1,92,test,0,female,Black,,,,old,happy,female,,z,668,True,False,,1,,,,False,215,BF-246,materials/cfd/Images/CFD/BF-246/CFD-BF-246-170-N.jpg,,,z,1
3,1,93,test,0,female,Black,,,,old,angry,male,,m,898,False,False,,1,,,,False,217,BF-233,materials/cfd/Images/CFD/BF-233/CFD-BF-233-116-N.jpg,,,z,1
3,1,94,test,0,female,Asian,,,,new,,,,m,1760,True,False,,1,,,,False,219,AF-204,materials/cfd/Images/CFD/AF-204/CFD-AF-204-067-N.jpg,,,m,1
3,1,95,test,0,male,White,,,,new,,,,m,1586,True,False,,1,,,,False,221,WM-031,materials/cfd/Images/CFD/WM-031/CFD-WM-031-003-N.jpg,,,m,1
3,1,96,test,0,male,Black,,,,old,angry,male,,z,1470,True,False,,1,,,,False,223,BM-217,materials/cfd/Images/CFD/BM-217/CFD-BM-217-082-N.jpg,,,z,1
3,1,97,test,0,female,Asian,,,,new,,,,m,1379,True,False,,1,,,,False,225,AF-209,materials/cfd/Images/CFD/AF-209/CFD-AF-209-006-N.jpg,,,m,1
3,1,98,test,0,male,Black,,,,old,neutral,female,,z,1508,True,False,,1,,,,False,227,BM-041,materials/cfd/Images/CFD/BM-041/CFD-BM-041-035-N.jpg,,,z,1
3,1,99,test,0,female,Black,,,,new,,,,m,1075,True,False,,1,,,,False,229,BF-210,materials/cfd/Images/CFD/BF-210/CFD-BF-210-130-N.jpg,,,m,1
3,1,100,test,0,female,White,,,,new,,,,m,882,True,False,,1,,,,False,231,WF-227,materials/cfd/Images/CFD/WF-227/CFD-WF-227-002-N.jpg,,,m,1
3,1,101,test,1,female,Black,,,,old,neutral,male,,z,1285,True,False,,1,,,,False,234,BF-009,materials/cfd/Images/CFD/BF-009/CFD-BF-009-002-N.jpg,,,z,1
3,1,102,test,1,female,White,,,,new,,,,m,1010,True,False,,1,,,,False,236,WF-212,materials/cfd/Images/CFD/WF-212/CFD-WF-212-050-N.jpg,,,m,1
3,1,103,test,1,male,Black,,,,old,happy,male,,z,892,True,False,,1,,,,False,238,BM-234,materials/cfd/Images/CFD/BM-234/CFD-BM-234-172-N.jpg,,,z,1
3,1,104,test,1,male,White,,,,new,,,,z,1071,False,False,,1,,,,False,240,WM-230,materials/cfd/Images/CFD/WM-230/CFD-WM-230-131-N.jpg,,,m,1
3,1,105,test,1,male,Asian,,,,old,neutral,female,,z,1282,True,False,,1,,,,False,242,AM-246,materials/cfd/Images/CFD/AM-246/CFD-AM-246-184-N.jpg,,,z,1
3,1,106,test,1,female,White,,,,new,,,,m,784,True,False,,1,,,,False,244,WF-219,materials/cfd/Images/CFD/WF-219/CFD-WF-219-038-N.jpg,,,m,1
3,1,107,test,1,male,Black,,,,new,,,,m,1016,True,False,,1,,,,False,246,BM-012,materials/cfd/Images/CFD/BM-012/CFD-BM-012-018-N.jpg,,,m,1
3,1,108,test,1,female,White,,,,old,happy,male,,z,1133,True,False,,1,,,,False,248,WF-012,materials/cfd/Images/CFD/WF-012/CFD-WF-012-002-N.jpg,,,z,1
3,1,109,test,1,female,Latino,,,,old,happy,female,,z,877,True,False,,1,,,,False,250,LF-251,materials/cfd/Images/CFD/LF-251/CFD-LF-251-057-N.jpg,,,z,1
3,1,110,test,1,female,White,,,,new,,,,m,894,True,False,,1,,,,False,252,WF-033,materials/cfd/Images/CFD/WF-033/CFD-WF-033-002-N.jpg,,,m,1
3,1,111,test,1,male,Black,,,,old,angry,male,,m,993,False,False,,1,,,,False,254,BM-004,materials/cfd/Images/CFD/BM-004/CFD-BM-004-002-N.jpg,,,z,1
3,1,112,test,1,male,Black,,,,old,happy,male,,z,751,True,False,,1,,,,False,256,BM-028,materials/cfd/Images/CFD/BM-028/CFD-BM-028-002-N.jpg,,,z,1
3,1,113,test,1,female,White,,,,old,angry,female,,m,967,False,False,,1,,,,False,258,WF-248,materials/cfd/Images/CFD/WF-248/CFD-WF-248-129-N.jpg,,,z,1
3,1,114,test,1,female,Asian,,,,old,angry,male,,z,1122,True,False,,1,,,,False,260,AF-255,materials/cfd/Images/CFD/AF-255/CFD-AF-255-209-N.jpg,,,z,1
3,1,115,test,1,male,Black,,,,new,,,,m,1163,True,False,,1,,,,False,262,BM-224,materials/cfd/Images/CFD/BM-224/CFD-BM-224-073-N.jpg,,,m,1
3,1,116,test,1,male,Latino,,,,old,angry,male,,m,1034,False,False,,1,,,,False,264,LM-210,materials/cfd/Images/CFD/LM-210/CFD-LM-210-156-N.jpg,,,z,1
3,1,117,test,1,male,White,,,,new,,,,m,2157,True,False,,1,,,,False,266,WM-038,materials/cfd/Images/CFD/WM-038/CFD-WM-038-003-N.jpg,,,m,1
3,1,118,test,1,male,Latino,,,,new,,,,m,1299,True,False,,1,,,,False,268,LM-222,materials/cfd/Images/CFD/LM-222/CFD-LM-222-239-N.jpg,,,m,1
3,1,119,test,1,female,Asian,,,,old,angry,female,,z,635,True,False,,1,,,,False,270,AF-254,materials/cfd/Images/CFD/AF-254/CFD-AF-254-167-N.jpg,,,z,1
3,1,120,test,1,female,Latino,,,,old,happy,female,,m,987,False,False,,1,,,,False,272,LF-218,materials/cfd/Images/CFD/LF-218/CFD-LF-218-072-N.jpg,,,z,1
3,1,121,test,1,female,Latino,,,,new,,,,m,1172,True,False,,1,,,,False,274,LF-243,materials/cfd/Images/CFD/LF-243/CFD-LF-243-175-N.jpg,,,m,1
3,1,122,test,1,female,Black,,,,old,neutral,female,,z,875,True,False,,1,,,,False,276,BF-202,materials/cfd/Images/CFD/BF-202/CFD-BF-202-109-N.jpg,,,z,1
3,1,123,test,1,male,White,,,,new,,,,m,1133,True,False,,1,,,,False,278,WM-022,materials/cfd/Images/CFD/WM-022/CFD-WM-022-001-N.jpg,,,m,1
3,1,124,test,1,male,Latino,,,,new,,,,m,1039,True,False,,1,,,,False,280,LM-217,materials/cfd/Images/CFD/LM-217/CFD-LM-217-162-N.jpg,,,m,1
3,1,125,test,1,female,White,,,,new,,,,m,931,True,False,,1,,,,False,282,WF-217,materials/cfd/Images/CFD/WF-217/CFD-WF-217-085-N.jpg,,,m,1
3,1,126,test,1,female,Asian,,,,old,angry,female,,z,617,True,False,,1,,,,False,284,AF-236,materials/cfd/Images/CFD/AF-236/CFD-AF-236-145-N.jpg,,,z,1
3,1,127,test,1,male,Asian,,,,new,,,,m,953,True,False,,1,,,,False,286,AM-231,materials/cfd/Images/CFD/AM-231/CFD-AM-231-136-N.jpg,,,m,1
3,1,128,test,1,male,Black,,,,new,,,,m,992,True,False,,1,,,,False,288,BM-020,materials/cfd/Images/CFD/BM-020/CFD-BM-020-001-N.jpg,,,m,1
3,1,129,test,1,male,Black,,,,new,,,,m,1047,True,False,,1,,,,False,290,BM-206,materials/cfd/Images/CFD/BM-206/CFD-BM-206-114-N.jpg,,,m,1
3,1,130,test,1,male,Black,,,,new,,,,m,1055,True,False,,1,,,,False,292,BM-230,materials/cfd/Images/CFD/BM-230/CFD-BM-230-232-N.jpg,,,m,1
3,1,131,test,1,female,Black,,,,new,,,,z,1748,False,False,,1,,,,False,294,BF-242,materials/cfd/Images/CFD/BF-242/CFD-BF-242-154-N.jpg,,,m,1
3,1,132,test,1,female,White,,,,old,happy,female,,m,731,False,False,,1,,,,False,296,WF-241,materials/cfd/Images/CFD/WF-241/CFD-WF-241-210-N.jpg,,,z,1
3,1,133,test,1,male,Black,,,,old,happy,female,,m,1674,False,False,,1,,,,False,298,BM-243,materials/cfd/Images/CFD/BM-243/CFD-BM-243-218-N.jpg,,,z,1
3,1,134,test,1,male,White,,,,new,,,,m,1498,True,False,,1,,,,False,300,WM-024,materials/cfd/Images/CFD/WM-024/CFD-WM-024-015-N.jpg,,,m,1
3,1,135,test,1,female,Latino,,,,new,,,,z,1969,False,False,,1,,,,False,302,LF-203,materials/cfd/Images/CFD/LF-203/CFD-LF-203-066-N.jpg,,,m,1
3,1,136,test,1,female,Black,,,,old,neutral,male,,z,1296,True,False,,1,,,,False,304,BF-031,materials/cfd/Images/CFD/BF-031/CFD-BF-031-002-N.jpg,,,z,1
3,1,137,test,1,female,Black,,,,old,neutral,male,,m,1069,False,False,,1,,,,False,306,BF-217,materials/cfd/Images/CFD/BF-217/CFD-BF-217-189-N.jpg,,,z,1
3,1,138,test,1,female,Black,,,,new,,,,z,1275,False,False,,1,,,,False,308,BF-206,materials/cfd/Images/CFD/BF-206/CFD-BF-206-143-N.jpg,,,m,1
3,1,139,test,1,male,Asian,,,,old,angry,female,,z,1429,True,False,,1,,,,False,310,AM-227,materials/cfd/Images/CFD/AM-227/CFD-AM-227-184-N.jpg,,,z,1
3,1,140,test,1,male,White,,,,new,,,,z,1421,False,False,,1,,,,False,312,WM-036,materials/cfd/Images/CFD/WM-036/CFD-WM-036-031-N.jpg,,,m,1
3,1,141,test,2,female,Latino,,,,old,neutral,male,,m,1023,False,False,,1,,,,False,315,LF-213,materials/cfd/Images/CFD/LF-213/CFD-LF-213-079-N.jpg,,,z,1
3,1,142,test,2,female,Black,,,,old,angry,male,,z,716,True,False,,1,,,,False,317,BF-252,materials/cfd/Images/CFD/BF-252/CFD-BF-252-191-N.jpg,,,z,1
3,1,143,test,2,male,Latino,,,,old,happy,male,,m,899,False,False,,1,,,,False,319,LM-202,materials/cfd/Images/CFD/LM-202/CFD-LM-202-072-N.jpg,,,z,1
3,1,144,test,2,male,Asian,,,,new,,,,m,1195,True,False,,1,,,,False,321,AM-206,materials/cfd/Images/CFD/AM-206/CFD-AM-206-086-N.jpg,,,m,1
3,1,145,test,2,female,White,,,,old,happy,female,,z,987,True,False,,1,,,,False,323,WF-205,materials/cfd/Images/CFD/WF-205/CFD-WF-205-006-N.jpg,,,z,1
3,1,146,test,2,male,Black,,,,old,angry,female,,m,752,False,False,,1,,,,False,325,BM-200,materials/cfd/Images/CFD/BM-200/CFD-BM-200-046-N.jpg,,,z,1
3,1,147,test,2,female,White,,,,new,,,,m,1050,True,False,,1,,,,False,327,WF-021,materials/cfd/Images/CFD/WF-021/CFD-WF-021-002-N.jpg,,,m,1
3,1,148,test,2,male,White,,,,old,angry,male,,m,845,False,False,,1,,,,False,329,WM-235,materials/cfd/Images/CFD/WM-235/CFD-WM-235-147-N.jpg,,,z,1
3,1,149,test,2,female,Black,,,,new,,,,m,1174,True,False,,1,,,,False,331,BF-248,materials/cfd/Images/CFD/BF-248/CFD-BF-248-149-N.jpg,,,m,1
3,1,150,test,2,male,White,,,,new,,,,m,1201,True,False,,1,,,,False,333,WM-207,materials/cfd/Images/CFD/WM-207/CFD-WM-207-048-N.jpg,,,m,1
3,1,151,test,2,male,White,,,,new,,,,z,1160,False,False,,1,,,,False,335,WM-240,materials/cfd/Images/CFD/WM-240/CFD-WM-240-125-N.jpg,,,m,1
3,1,152,test,2,male,Black,,,,new,,,,m,1152,True,False,,1,,,,False,337,BM-039,materials/cfd/Images/CFD/BM-039/CFD-BM-039-029-N.jpg,,,m,1
3,1,153,test,2,male,Asian,,,,new,,,,m,1117,True,False,,1,,,,False,339,AM-210,materials/cfd/Images/CFD/AM-210/CFD-AM-210-035-N.jpg,,,m,1
3,1,154,test,2,male,Latino,,,,new,,,,m,1374,True,False,,1,,,,False,341,LM-215,materials/cfd/Images/CFD/LM-215/CFD-LM-215-247-N.jpg,,,m,1
3,1,155,test,2,female,Black,,,,old,happy,male,,z,626,True,False,,1,,,,False,343,BF-237,materials/cfd/Images/CFD/BF-237/CFD-BF-237-172-N.jpg,,,z,1
3,1,156,test,2,female,Asian,,,,new,,,,m,1301,True,False,,1,,,,False,345,AF-244,materials/cfd/Images/CFD/AF-244/CFD-AF-244-168-N.jpg,,,m,1
3,1,157,test,2,male,White,,,,new,,,,m,1039,True,False,,1,,,,False,347,WM-245,materials/cfd/Images/CFD/WM-245/CFD-WM-245-123-N.jpg,,,m,1
3,1,158,test,2,female,White,,,,new,,,,m,1114,True,False,,1,,,,False,349,WF-242,materials/cfd/Images/CFD/WF-242/CFD-WF-242-001-N.jpg,,,m,1
3,1,159,test,2,male,Black,,,,old,happy,female,,m,747,False,False,,1,,,,False,351,BM-227,materials/cfd/Images/CFD/BM-227/CFD-BM-227-191-N.jpg,,,z,1
3,1,160,test,2,male,White,,,,new,,,,z,1249,False,False,,1,,,,False,353,WM-035,materials/cfd/Images/CFD/WM-035/CFD-WM-035-032-N.jpg,,,m,1
3,1,161,test,2,female,Black,,,,new,,,,z,1414,False,False,,1,,,,False,355,BF-251,materials/cfd/Images/CFD/BF-251/CFD-BF-251-211-N.jpg,,,m,1
3,1,162,test,2,female,Black,,,,old,angry,female,,m,942,False,False,,1,,,,False,357,BF-005,materials/cfd/Images/CFD/BF-005/CFD-BF-005-001-N.jpg,,,z,1
3,1,163,test,2,female,White,,,,old,happy,male,,z,938,True,False,,1,,,,False,359,WF-224,materials/cfd/Images/CFD/WF-224/CFD-WF-224-099-N.jpg,,,z,1
3,1,164,test,2,male,Black,,,,old,happy,male,,m,936,False,False,,1,,,,False,361,BM-032,materials/cfd/Images/CFD/BM-032/CFD-BM-032-024-N.jpg,,,z,1
3,1,165,test,2,female,Black,,,,new,,,,z,1429,False,False,,1,,,,False,363,BF-032,materials/cfd/Images/CFD/BF-032/CFD-BF-032-038-N.jpg,,,m,1
3,1,166,test,2,female,White,,,,new,,,,m,1738,True,False,,1,,,,False,365,WF-210,materials/cfd/Images/CFD/WF-210/CFD-WF-210-086-N.jpg,,,m,1
3,1,167,test,2,male,Asian,,,,old,neutral,male,,m,1073,False,False,,1,,,,False,367,AM-243,materials/cfd/Images/CFD/AM-243/CFD-AM-243-212-N.jpg,,,z,1
3,1,168,test,2,male,Asian,,,,old,neutral,female,,m,1108,False,False,,1,,,,False,369,AM-232,materials/cfd/Images/CFD/AM-232/CFD-AM-232-251-N.jpg,,,z,1
3,1,169,test,2,female,Latino,,,,old,angry,female,,m,763,False,False,,1,,,,False,371,LF-248,materials/cfd/Images/CFD/LF-248/CFD-LF-248-160-N.jpg,,,z,1
3,1,170,test,2,male,White,,,,old,angry,female,,m,1283,False,False,,1,,,,False,373,WM-002,materials/cfd/Images/CFD/WM-002/CFD-WM-002-009-N.jpg,,,z,1
3,1,171,test,2,female,Black,,,,new,,,,m,1363,True,False,,1,,,,False,375,BF-224,materials/cfd/Images/CFD/BF-224/CFD-BF-224-002-N.jpg,,,m,1
3,1,172,test,2,female,Latino,,,,old,neutral,female,,m,931,False,False,,1,,,,False,377,LF-219,materials/cfd/Images/CFD/LF-219/CFD-LF-219-223-N.jpg,,,z,1
3,1,173,test,2,female,Asian,,,,new,,,,z,857,False,False,,1,,,,False,379,AF-200,materials/cfd/Images/CFD/AF-200/CFD-AF-200-228-N.jpg,,,m,1
3,1,174,test,2,male,Asian,,,,new,,,,m,1203,True,False,,1,,,,False,381,AM-201,materials/cfd/Images/CFD/AM-201/CFD-AM-201-076-N.jpg,,,m,1
3,1,175,test,2,male,Black,,,,new,,,,m,1246,True,False,,1,,,,False,383,BM-210,materials/cfd/Images/CFD/BM-210/CFD-BM-210-148-N.jpg,,,m,1
3,1,176,test,2,female,Asian,,,,new,,,,z,1357,False,False,,1,,,,False,385,AF-228,materials/cfd/Images/CFD/AF-228/CFD-AF-228-173-N.jpg,,,m,1
3,1,177,test,2,male,Black,,,,old,neutral,male,,m,1176,False,False,,1,,,,False,387,BM-033,materials/cfd/Images/CFD/BM-033/CFD-BM-033-003-N.jpg,,,z,1
3,1,178,test,2,female,Asian,,,,new,,,,m,1440,True,False,,1,,,,False,389,AF-252,materials/cfd/Images/CFD/AF-252/CFD-AF-252-135-N.jpg,,,m,1
3,1,179,test,2,female,White,,,,old,neutral,female,,z,1087,True,False,,1,,,,False,391,WF-251,materials/cfd/Images/CFD/WF-251/CFD-WF-251-014-N.jpg,,,z,1
3,1,180,test,2,female,Asian,,,,new,,,,m,1264,True,False,,1,,,,False,393,AF-253,materials/cfd/Images/CFD/AF-253/CFD-AF-253-130-N.jpg,,,m,1
4,1,1,study,0,female,Black,male,Black,happy,,,,,m,1203,False,False,,1,,,,False,19,BF-028,materials/cfd/Images/CFD/BF-028/CFD-BF-028-001-N.jpg,BM-015,materials/cfd/Images/CFD/BM-015/CFD-BM-015-016-HO.jpg,z,1.5
4,1,2,study,0,male,Asian,female,Black,angry,,,,,z,1118,False,False,,1,,,,False,21,AM-203,materials/cfd/Images/CFD/AM-203/CFD-AM-203-086-N.jpg,BF-015,materials/cfd/Images/CFD/BF-015/CFD-BF-015-022-A.jpg,m,1.5
4,1,3,study,0,female,Latino,male,Black,angry,,,,,z,1142,True,False,,1,,,,False,23,LF-250,materials/cfd/Images/CFD/LF-250/CFD-LF-250-169-N.jpg,BM-028,materials/cfd/Images/CFD/BM-028/CFD-BM-028-012-A.jpg,z,1.5
4,1,4,study,0,male,White,male,Black,happy,,,,,m,1281,True,False,,1,,,,False,25,WM-026,materials/cfd/Images/CFD/WM-026/CFD-WM-026-001-N.jpg,BM-005,materials/cfd/Images/CFD/BM-005/CFD-BM-005-005-HO.jpg,m,1.5
4,1,5,study,0,male,Black,female,Black,neutral,,,,,m,883,True,False,,1,,,,False,27,BM-018,materials/cfd/Images/CFD/BM-018/CFD-BM-018-001-N.jpg,BF-228,materials/cfd/Images/CFD/BF-228/CFD-BF-228-212-N.jpg,m,1.5
4,1,6,study,0,male,White,female,White,happy,,,,,m,1346,True,False,,1,,,,False,29,WM-025,materials/cfd/Images/CFD/WM-025/CFD-WM-025-002-N.jpg,WF-017,materials/cfd/Images/CFD/WF-017/CFD-WF-017-015-HO.jpg,m,1.5
4,1,7,study,0,female,Black,female,Black,angry,,,,,z,1167,True,False,,1,,,,False,31,BF-232,materials/cfd/Images/CFD/BF-232/CFD-BF-232-187-N.jpg,BF-051,materials/cfd/Images/CFD/BF-051/CFD-BF-051-043-A.jpg,z,1.5
4,1,8,study,0,female,Asian,male,Black,angry,,,,,z,1947,True,False,,1,,,,False,33,AF-249,materials/cfd/Images/CFD/AF-249/CFD-AF-249-092-N.jpg,BM-045,materials/cfd/Images/CFD/BM-045/CFD-BM-045-061-A.jpg,z,1.5
4,1,9,study,0,male,White,male,White,angry,,,,,z,1127,False,False,,1,,,,False,35,WM-208,materials/cfd/Images/CFD/WM-208/CFD-WM-208-068-N.jpg,WM-031,materials/cfd/Images/CFD/WM-031/CFD-WM-031-045-A.jpg,m,1.5
4,1,10,study,0,female,Asian,female,Black,angry,,,,,z,959,True,False,,1,,,,False,37,AF-254,materials/cfd/Images/CFD/AF-254/CFD-AF-254-167-N.jpg,BF-037,materials/cfd/Images/CFD/BF-037/CFD-BF-037-013-A.jpg,z,1.5
4,1,11,study,0,female,White,male,Black,neutral,,,,,z,1345,True,False,,1,,,,False,39,WF-218,materials/cfd/Images/CFD/WF-218/CFD-WF-218-087-N.jpg,BM-222,materials/cfd/Images/CFD/BM-222/CFD-BM-222-173-N.jpg,z,1.5
4,1,12,study,0,female,Asian,female,White,angry,,,,,z,980,True,False,,1,,,,False,41,AF-238,materials/cfd/Images/CFD/AF-238/CFD-AF-238-185-N.jpg,WF-026,materials/cfd/Images/CFD/WF-026/CFD-WF-026-008-A.jpg,z,1.5
4,1,13,study,0,female,Asian,male,Black,neutral,,,,,z,906,True,False,,1,,,,False,43,AF-208,materials/cfd/Images/CFD/AF-208/CFD-AF-208-003-N.jpg,BM-221,materials/cfd/Images/CFD/BM-221/CFD-BM-221-198-N.jpg,z,1.5
4,1,14,study,0,female,Black,male,Black,angry,,,,,z,718,True,False,,1,,,,False,45,BF-253,materials/cfd/Images/CFD/BF-253/CFD-BF-253-202-N.jpg,BM-016,materials/cfd/Images/CFD/BM-016/CFD-BM-016-042-A.jpg,z,1.5
4,1,15,study,0,male,Black,male,White,neutral,,,,,z,936,False,False,,1,,,,False,47,BM-250,materials/cfd/Images/CFD/BM-250/CFD-BM-250-170-N.jpg,WM-222,materials/cfd/Images/CFD/WM-222/CFD-WM-222-057-N.jpg,m,1.5
4,1,16,study,0,female,White,female,White,angry,,,,,z,981,True,False,,1,,,,False,49,WF-025,materials/cfd/Images/CFD/WF-025/CFD-WF-025-019-N.jpg,WF-012,materials/cfd/Images/CFD/WF-012/CFD-WF-012-012-A.jpg,z,1.5
4,1,17,study,0,male,Latino,male,Black,angry,,,,,m,1331,True,False,,1,,,,False,51,LM-241,materials/cfd/Images/CFD/LM-241/CFD-LM-241-125-N.jpg,BM-026,materials/cfd/Images/CFD/BM-026/CFD-BM-026-017-A.jpg,m,1.5
4,1,18,study,0,female,Asian,male,White,happy,,,,,z,620,True,False,,1,,,,False,53,AF-235,materials/cfd/Images/CFD/AF-235/CFD-AF-235-170-N.jpg,WM-001,materials/cfd/Images/CFD/WM-001/CFD-WM-001-011-HO.jpg,z,1.5
4,1,19,study,0,male,Asian,male,White,angry,,,,,m,1900,True,False,,1,,,,False,55,AM-231,materials/cfd/Images/CFD/AM-231/CFD-AM-231-136-N.jpg,WM-012,materials/cfd/Images/CFD/WM-012/CFD-WM-012-015-A.jpg,m,1.5
4,1,20,study,0,female,Asian,male,White,happy,,,,,z,1291,True,False,,1,,,,False,57,AF-216,materials/cfd/Images/CFD/AF-216/CFD-AF-216-106-N.jpg,WM-016,materials/cfd/Images/CFD/WM-016/CFD-WM-016-002-HO.jpg,z,1.5
4,1,21,study,0,female,Black,female,White,happy,,,,,z,993,True,False,,1,,,,False,59,BF-240,materials/cfd/Images/CFD/BF-240/CFD-BF-240-179-N.jpg,WF-033,materials/cfd/Images/CFD/WF-033/CFD-WF-033-005-HO.jpg,z,1.5
4,1,22,study,0,male,Asian,female,Black,neutral,,,,,m,1300,True,False,,1,,,,False,61,AM-244,materials/cfd/Images/CFD/AM-244/CFD-AM-244-222-N.jpg,BF-224,materials/cfd/Images/CFD/BF-224/CFD-BF-224-002-N.jpg,m,1.5
4,1,23,study,0,female,Black,female,White,neutral,,,,,z,1301,True,False,,1,,,,False,63,BF-025,materials/cfd/Images/CFD/BF-025/CFD-BF-025-002-N.jpg,WF-013,materials/cfd/Images/CFD/WF-013/CFD-WF-013-003-N.jpg,z,1.5
4,1,24,study,0,female,Latino,male,Black,angry,,,,,z,656,True,False,,1,,,,False,65,LF-254,materials/cfd/Images/CFD/LF-254/CFD-LF-254-125-N.jpg,BM-039,materials/cfd/Images/CFD/BM-039/CFD-BM-039-037-A.jpg,z,1.5
4,1,25,study,0,male,White,female,White,happy,,,,,m,1117,True,False,,1,,,,False,67,WM-232,materials/cfd/Images/CFD/WM-232/CFD-WM-232-070-N.jpg,WF-016,materials/cfd/Images/CFD/WF-016/CFD-WF-016-003-HO.jpg,m,1.5
4,1,26,study,0,male,Latino,female,White,neutral,,,,,m,1006,True,False,,1,,,,False,69,LM-232,materials/cfd/Images/CFD/LM-232/CFD-LM-232-204-N.jpg,WF-221,materials/cfd/Images/CFD/WF-221/CFD-WF-221-005-N.jpg,m,1.5
4,1,27,study,0,male,Black,male,White,happy,,,,,m,1693,True,False,,1,,,,False,71,BM-002,materials/cfd/Images/CFD/BM-002/CFD-BM-002-013-N.jpg,WM-013,materials/cfd/Images/CFD/WM-013/CFD-WM-013-006-HO.jpg,m,1.5
4,1,28,study,0,male,White,male,Black,neutral,,,,,m,830,True,False,,1,,,,False,73,WM-203,materials/cfd/Images/CFD/WM-203/CFD-WM-203-023-N.jpg,BM-243,materials/cfd/Images/CFD/BM-243/CFD-BM-243-218-N.jpg,m,1.5
4,1,29,study,0,male,Black,male,White,neutral,,,,,m,563,True,False,,1,,,,False,75,BM-027,materials/cfd/Images/CFD/BM-027/CFD-BM-027-001-N.jpg,WM-028,materials/cfd/Images/CFD/WM-028/CFD-WM-028-003-N.jpg,m,1.5
4,1,30,study,0,male,Latino,female,Black,angry,,,,,m,1320,True,False,,1,,,,False,77,LM-223,materials/cfd/Images/CFD/LM-223/CFD-LM-223-175-N.jpg,BF-019,materials/cfd/Images/CFD/BF-019/CFD-BF-019-023-A.jpg,m,1.5
4,1,31,study,1,female,Black,female,Black,neutral,,,,,z,1648,True,False,,1,,,,False,80,BF-217,materials/cfd/Images/CFD/BF-217/CFD-BF-217-189-N.jpg,BF-050,materials/cfd/Images/CFD/BF-050/CFD-BF-050-003-N.jpg,z,1.5
4,1,32,study,1,female,Asian,female,Black,happy,,,,,z,1965,True,False,,1,,,,False,82,AF-219,materials/cfd/Images/CFD/AF-219/CFD-AF-219-106-N.jpg,BF-043,materials/cfd/Images/CFD/BF-043/CFD-BF-043-004-HO.jpg,z,1.5
4,1,33,study,1,female,Black,male,Black,neutral,,,,,z,1483,True,False,,1,,,,False,84,BF-242,materials/cfd/Images/CFD/BF-242/CFD-BF-242-154-N.jpg,BM-239,materials/cfd/Images/CFD/BM-239/CFD-BM-239-136-N.jpg,z,1.5
4,1,34,study,1,male,White,male,Black,angry,,,,,m,1414,True,False,,1,,,,False,86,WM-240,materials/cfd/Images/CFD/WM-240/CFD-WM-240-125-N.jpg,BM-040,materials/cfd/Images/CFD/BM-040/CFD-BM-040-013-A.jpg,m,1.5
4,1,35,study,1,female,White,male,Black,happy,,,,,z,1023,True,False,,1,,,,False,88,WF-036,materials/cfd/Images/CFD/WF-036/CFD-WF-036-023-N.jpg,BM-024,materials/cfd/Images/CFD/BM-024/CFD-BM-024-061-HO.jpg,z,1.5
4,1,36,study,1,male,White,male,White,happy,,,,,z,1347,False,False,,1,,,,False,90,WM-029,materials/cfd/Images/CFD/WM-029/CFD-WM-029-023-N.jpg,WM-009,materials/cfd/Images/CFD/WM-009/CFD-WM-009-004-HO.jpg,m,1.5
4,1,37,study,1,male,Asian,male,White,neutral,,,,,m,1657,True,False,,1,,,,False,92,AM-252,materials/cfd/Images/CFD/AM-252/CFD-AM-252-114-N.jpg,WM-215,materials/cfd/Images/CFD/WM-215/CFD-WM-215-041-N.jpg,m,1.5
4,1,38,study,1,male,Black,female,White,neutral,,,,,m,974,True,False,,1,,,,False,94,BM-235,materials/cfd/Images/CFD/BM-235/CFD-BM-235-226-N.jpg,WF-229,materials/cfd/Images/CFD/WF-229/CFD-WF-229-004-N.jpg,m,1.5
4,1,39,study,1,female,White,female,Black,neutral,,,,,,,False,True,,1,,,,False,96,WF-204,materials/cfd/Images/CFD/WF-204/CFD-WF-204-038-N.jpg,BF-247,materials/cfd/Images/CFD/BF-247/CFD-BF-247-179-N.jpg,z,1.5
4,1,40,study,1,male,White,female,Black,angry,,,,,m,1112,True,False,,1,,,,False,98,WM-039,materials/cfd/Images/CFD/WM-039/CFD-WM-039-018-N.jpg,BF-004,materials/cfd/Images/CFD/BF-004/CFD-BF-004-021-A.jpg,m,1.5
4,1,41,study,1,male,Asian,female,Black,neutral,,,,,m,645,True,False,,1,,,,False,100,AM-214,materials/cfd/Images/CFD/AM-214/CFD-AM-214-168-N.jpg,BF-201,materials/cfd/Images/CFD/BF-201/CFD-BF-201-080-N.jpg,m,1.5
4,1,42,study,1,male,Black,male,Black,happy,,,,,m,831,True,False,,1,,,,False,102,BM-238,materials/cfd/Images/CFD/BM-238/CFD-BM-238-242-N.jpg,BM-010,materials/cfd/Images/CFD/BM-010/CFD-BM-010-004-HO.jpg,m,1.5
4,1,43,study,1,female,White,female,Black,neutral,,,,,z,798,True,False,,1,,,,False,104,WF-015,materials/cfd/Images/CFD/WF-015/CFD-WF-015-006-N.jpg,BF-208,materials/cfd/Images/CFD/BF-208/CFD-BF-208-266-N.jpg,z,1.5
4,1,44,study,1,female,Latino,female,Black,happy,,,,,z,876,True,False,,1,,,,False,106,LF-209,materials/cfd/Images/CFD/LF-209/CFD-LF-209-072-N.jpg,BF-018,materials/cfd/Images/CFD/BF-018/CFD-BF-018-040-HO.jpg,z,1.5
4,1,45,study,1,male,Latino,female,White,angry,,,,,m,2358,True,False,,1,,,,False,108,LM-204,materials/cfd/Images/CFD/LM-204/CFD-LM-204-001-N.jpg,WF-001,materials/cfd/Images/CFD/WF-001/CFD-WF-001-016-A.jpg,m,1.5
4,1,46,study,1,female,Black,male,White,happy,,,,,z,1314,True,False,,1,,,,False,110,BF-038,materials/cfd/Images/CFD/BF-038/CFD-BF-038-037-N.jpg,WM-004,materials/cfd/Images/CFD/WM-004/CFD-WM-004-006-HO.jpg,z,1.5
4,1,47,study,1,female,Black,female,Black,neutral,,,,,z,1032,True,False,,1,,,,False,112,BF-002,materials/cfd/Images/CFD/BF-002/CFD-BF-002-001-N.jpg,BF-207,materials/cfd/Images/CFD/BF-207/CFD-BF-207-004-N.jpg,z,1.5
4,1,48,study,1,female,White,male,White,neutral,,,,,z,926,True,False,,1,,,,False,114,WF-206,materials/cfd/Images/CFD/WF-206/CFD-WF-206-147-N.jpg,WM-247,materials/cfd/Images/CFD/WM-247/CFD-WM-247-084-N.jpg,z,1.5
4,1,49,study,1,female,Black,male,White,angry,,,,,z,935,True,False,,1,,,,False,116,BF-036,materials/cfd/Images/CFD/BF-036/CFD-BF-036-027-N.jpg,WM-017,materials/cfd/Images/CFD/WM-017/CFD-WM-017-011-A.jpg,z,1.5
4,1,50,study,1,female,White,female,White,angry,,,,,z,827,True,False,,1,,,,False,118,WF-213,materials/cfd/Images/CFD/WF-213/CFD-WF-213-031-N.jpg,WF-018,materials/cfd/Images/CFD/WF-018/CFD-WF-018-012-A.jpg,z,1.5
4,1,51,study,1,male,White,female,White,happy,,,,,z,691,False,False,,1,,,,False,120,WM-224,materials/cfd/Images/CFD/WM-224/CFD-WM-224-197-N.jpg,WF-024,materials/cfd/Images/CFD/WF-024/CFD-WF-024-006-HO.jpg,m,1.5
4,1,52,study,1,female,Latino,female,White,happy,,,,,z,1136,True,False,,1,,,,False,122,LF-211,materials/cfd/Images/CFD/LF-211/CFD-LF-211-003-N.jpg,WF-022,materials/cfd/Images/CFD/WF-022/CFD-WF-022-019-HO.jpg,z,1.5
4,1,53,study,1,female,Latino,female,Black,happy,,,,,z,873,True,False,,1,,,,False,124,LF-245,materials/cfd/Images/CFD/LF-245/CFD-LF-245-166-N.jpg,BF-020,materials/cfd/Images/CFD/BF-020/CFD-BF-020-004-HO.jpg,z,1.5
