[{"success":true,"timeout":false,"failed_images":[],"failed_audio":[],"failed_video":[],"trial_type":"preload","trial_index":0,"time_elapsed":1281,"internal_node_id":"0.0-0.0","condition":1,"key_mapping":1,"test_mode":false,"subject_id":"","study_id":"","session_id":""},{"view_history":[{"page_index":0,"viewing_time":117390}],"rt":117391,"trial_type":"instructions","trial_index":1,"time_elapsed":118672,"internal_node_id":"0.0-1.0","condition":1,"key_mapping":1,"test_mode":false,"subject_id":"","study_id":"","session_id":""},{"rt":1932,"stimulus":"<p>Press the key for <strong>FEMALE</strong></p>","response":"z","trial_part":"key_quiz","correct_key":"z","trial_type":"html-keyboard-response","trial_index":2,"time_elapsed":120606,"internal_node_id":"0.0-2.0-0.0","condition":1,"key_mapping":1,"test_mode":false,"subject_id":"","study_id":"","session_id":""},{"rt":null,"stimulus":"<p style=\"color: #6b6;\">Correct!</p>","response":null,"trial_type":"html-keyboard-response","trial_index":3,"time_elapsed":121609,"internal_node_id":"0.0-2.0-1.0","condition":1,"key_mapping":1,"test_mode":false,"subject_id":"","study_id":"","session_id":""},{"rt":568,"stimulus":"<p>Press the key for <strong>MALE</strong></p>","response":"m","trial_part":"key_quiz","correct_key":"m","trial_type":"html-keyboard-response","trial_index":4,"time_elapsed":122178,"internal_node_id":"0.0-3.0-0.0","condition":1,"key_mapping":1,"test_mode":false,"subject_id":"","study_id":"","session_id":""},{"rt":null,"stimulus":"<p style=\"color: #6b6;\">Correct!</p>","response":null,"trial_type":"html-keyboard-response","trial_index":5,"time_elapsed":123181,"internal_node_id":"0.0-3.0-1.0","condition":1,"key_mapping":1,"test_mode":false,"subject_id":"","study_id":"","session_id":""},{"rt":2600,"stimulus":"<h2>Practice Trials</h2><p>You will now complete a few practice trials to familiarize yourself with the task.</p><p>Press any key to begin the practice.</p>","response":"m","trial_type":"html-keyboard-response","trial_index":6,"time_elapsed":125782,"internal_node_id":"0.0-4.0","condition":1,"key_mapping":1,"test_mode":false,"subject_id":"","study_id":"","session_id":""},{"rt":null,"stimulus":"<span class=\"fixation-cross\">+</span>","response":null,"phase":"study","trial_part":"fixation","trial_type":"html-keyboard-response","trial_index":7,"time_elapsed":127785,"internal_node_id":"0.0-5.0","condition":1,"key_mapping":1,"test_mode":false,"subject_id":"","study_id":"","session_id":""},{"rt":1230,"stimulus":"<div class=\"flanker-display\" style=\"gap: 0px;\"><img src=\"materials/cfd/Images/CFD/BF-226/CFD-BF-226-119-N.jpg\" class=\"face-image\" style=\"width: 100px; height: 141px;\" /><img src=\"materials/cfd/Images/CFD/WF-017/CFD-WF-017-003-N.jpg\" class=\"face-image\" style=\"width: 100px; height: 141px;\" /><img src=\"materials/cfd/Images/CFD/BF-226/CFD-BF-226-119-N.jpg\" class=\"face-image\" style=\"width: 100px; height: 141px;\" /></div>","response":"z","phase":"study","block":"practice","target_id":"WF-017","target_gender":"F","target_race":"W","target_filename":"materials/cfd/Images/CFD/WF-017/CFD-WF-017-003-N.jpg","flanker_id":"BF-226","flanker_gender":"F","flanker_race":"B","flanker_emotion":"neutral","flanker_filename":"materials/cfd/Images/CFD/BF-226/CFD-BF-226-119-N.jpg","trial_type":"html-keyboard-response","trial_index":8,"time_elapsed":130789,"internal_node_id":"0.0-6.0","condition":1,"key_mapping":1,"test_mode":false,"subject_id":"","study_id":"","session_id":"","timed_out":false,"device_pixel_ratio":2,"correct_response":"z","correct":true},{"rt":null,"stimulus":"<span class=\"fixation-cross\">+</span>","response":null,"phase":"study","trial_part":"fixation","trial_type":"html-keyboard-response","trial_index":9,"time_elapsed":132792,"internal_node_id":"0.0-7.0","condition":1,"key_mapping":1,"test_mode":false,"subject_id":"","study_id":"","session_id":""},{"rt":2192,"stimulus":"<div class=\"flanker-display\" style=\"gap: 0px;\"><img src=\"materials/cfd/Images/CFD/WF-011/CFD-WF-011-002-N.jpg\" class=\"face-image\" style=\"width: 100px; height: 141px;\" /><img src=\"materials/cfd/Images/CFD/WF-034/CFD-WF-034-006-N.jpg\" class=\"face-image\" style=\"width: 100px; height: 141px;\" /><img src=\"materials/cfd/Images/CFD/WF-011/CFD-WF-011-002-N.jpg\" class=\"face-image\" style=\"width: 100px; height: 141px;\" /></div>","response":"z","phase":"study","block":"practice","target_id":"WF-034","target_gender":"F","target_race":"W","target_filename":"materials/cfd/Images/CFD/WF-034/CFD-WF-034-006-N.jpg","flanker_id":"WF-011","flanker_gender":"F","flanker_race":"W","flanker_emotion":"neutral","flanker_filename":"materials/cfd/Images/CFD/WF-011/CFD-WF-011-002-N.jpg","trial_type":"html-keyboard-response","trial_index":10,"time_elapsed":135795,"internal_node_id":"0.0-8.0","condition":1,"key_mapping":1,"test_mode":false,"subject_id":"","study_id":"","session_id":"","timed_out":false,"device_pixel_ratio":2,"correct_response":"z","correct":true},{"rt":null,"stimulus":"<span class=\"fixation-cross\">+</span>","response":null,"phase":"study","trial_part":"fixation","trial_type":"html-keyboard-response","trial_index":11,"time_elapsed":137798,"internal_node_id":"0.0-9.0","condition":1,"key_mapping":1,"test_mode":false,"subject_id":"","study_id":"","session_id":""},{"rt":933,"stimulus":"<div class=\"flanker-display\" style=\"gap: 0px;\"><img src=\"materials/cfd/Images/CFD/BM-224/CFD-BM-224-073-N.jpg\" class=\"face-image\" style=\"width: 100px; height: 141px;\" /><img src=\"materials/cfd/Images/CFD/AM-215/CFD-AM-215-120-N.jpg\" class=\"face-image\" style=\"width: 100px; height: 141px;\" /><img src=\"materials/cfd/Images/CFD/BM-224/CFD-BM-224-073-N.jpg\" class=\"face-image\" style=\"width: 100px; height: 141px;\" /></div>","response":"m","phase":"study","block":"practice","target_id":"AM-215","target_gender":"M","target_race":"A","target_filename":"materials/cfd/Images/CFD/AM-215/CFD-AM-215-120-N.jpg","flanker_id":"BM-224","flanker_gender":"M","flanker_race":"B","flanker_emotion":"neutral","flanker_filename":"materials/cfd/Images/CFD/BM-224/CFD-BM-224-073-N.jpg","trial_type":"html-keyboard-response","trial_index":12,"time_elapsed":140802,"internal_node_id":"0.0-10.0","condition":1,"key_mapping":1,"test_mode":false,"subject_id":"","study_id":"","session_id":"","timed_out":false,"device_pixel_ratio":2,"correct_response":"m","correct":true},{"rt":null,"stimulus":"<span class=\"fixation-cross\">+</span>","response":null,"phase":"study","trial_part":"fixation","trial_type":"html-keyboard-response","trial_index":13,"time_elapsed":142804,"internal_node_id":"0.0-11.0","condition":1,"key_mapping":1,"test_mode":false,"subject_id":"","study_id":"","session_id":""},{"rt":939,"stimulus":"<div class=\"flanker-display\" style=\"gap: 0px;\"><img src=\"materials/cfd/Images/CFD/WM-242/CFD-WM-242-011-N.jpg\" class=\"face-image\" style=\"width: 100px; height: 141px;\" /><img src=\"materials/cfd/Images/CFD/LM-213/CFD-LM-213-061-N.jpg\" class=\"face-image\" style=\"width: 100px; height: 141px;\" /><img src=\"materials/cfd/Images/CFD/WM-242/CFD-WM-242-011-N.jpg\" class=\"face-image\" style=\"width: 100px; height: 141px;\" /></div>","response":"m","phase":"study","block":"practice","target_id":"LM-213","target_gender":"M","target_race":"L","target_filename":"materials/cfd/Images/CFD/LM-213/CFD-LM-213-061-N.jpg","flanker_id":"WM-242","flanker_gender":"M","flanker_race":"W","flanker_emotion":"neutral","flanker_filename":"materials/cfd/Images/CFD/WM-242/CFD-WM-242-011-N.jpg","trial_type":"html-keyboard-response","trial_index":14,"time_elapsed":145807,"internal_node_id":"0.0-12.0","condition":1,"key_mapping":1,"test_mode":false,"subject_id":"","study_id":"","session_id":"","timed_out":false,"device_pixel_ratio":2,"correct_response":"m","correct":true},{"rt":41611,"stimulus":"<h2>Practice Complete</h2><p>The practice trials are over. The real trials will begin next.</p><p>From now on, the key instructions will <strong>not</strong> be displayed on screen during trials.</p><p>Reminder: <strong>Z</strong> = FEMALE &nbsp;&nbsp; <strong>M</strong> = MALE</p><p>Press any key to continue.</p>","response":"z","trial_type":"html-keyboard-response","trial_index":15,"time_elapsed":187419,"internal_node_id":"0.0-13.0","condition":1,"key_mapping":1,"test_mode":false,"subject_id":"","study_id":"","session_id":""},{"rt":null,"stimulus":"<span class=\"fixation-cross\">+</span>","response":null,"phase":"study","trial_part":"fixation","trial_type":"html-keyboard-response","trial_index":16,"time_elapsed":189421,"internal_node_id":"0.0-14.0","condition":1,"key_mapping":1,"test_mode":false,"subject_id":"","study_id":"","session_id":""},{"rt":875,"stimulus":"<div class=\"flanker-display\" style=\"gap: 0px;\"><img src=\"materials/cfd/Images/CFD/WF-027/CFD-WF-027-021-HO.jpg\" class=\"face-image\" style=\"width: 100px; height: 141px;\" /><img src=\"materials/cfd/Images/CFD/LM-235/CFD-LM-235-231-N.jpg\" class=\"face-image\" style=\"width: 100px; height: 141px;\" /><img src=\"materials/cfd/Images/CFD/WF-027/CFD-WF-027-021-HO.jpg\" class=\"face-image\" style=\"width: 100px; height: 141px;\" /></div>","response":"m","phase":"study","block":0,"target_id":"LM-235","target_gender":"M","target_race":"L","target_filename":"materials/cfd/Images/CFD/LM-235/CFD-LM-235-231-N.jpg","flanker_id":"WF-027","flanker_gender":"F","flanker_race":"W","flanker_emotion":"happy","flanker_filename":"materials/cfd/Images/CFD/WF-027/CFD-WF-027-021-HO.jpg","trial_type":"html-keyboard-response","trial_index":17,"time_elapsed":192425,"internal_node_id":"0.0-15.0","condition":1,"key_mapping":1,"test_mode":false,"subject_id":"","study_id":"","session_id":"","timed_out":false,"device_pixel_ratio":2,"correct_response":"m","correct":true},{"rt":null,"stimulus":"<span class=\"fixation-cross\">+</span>","response":null,"phase":"study","trial_part":"fixation","trial_type":"html-keyboard-response","trial_index":18,"time_elapsed":194428,"internal_node_id":"0.0-16.0","condition":1,"key_mapping":1,"test_mode":false,"subject_id":"","study_id":"","session_id":""},{"rt":1880,"stimulus":"<div class=\"flanker-display\" style=\"gap: 0px;\"><img src=\"materials/cfd/Images/CFD/WF-018/CFD-WF-018-018-HO.jpg\" class=\"face-image\" style=\"width: 100px; height: 141px;\" /><img src=\"materials/cfd/Images/CFD/LF-200/CFD-LF-200-058-N.jpg\" class=\"face-image\" style=\"width: 100px; height: 141px;\" /><img src=\"materials/cfd/Images/CFD/WF-018/CFD-WF-018-018-HO.jpg\" class=\"face-image\" style=\"width: 100px; height: 141px;\" /></div>","response":"z","phase":"study","block":0,"target_id":"LF-200","target_gender":"F","target_race":"L","target_filename":"materials/cfd/Images/CFD/LF-200/CFD-LF-200-058-N.jpg","flanker_id":"WF-018","flanker_gender":"F","flanker_race":"W","flanker_emotion":"happy","flanker_filename":"materials/cfd/Images/CFD/WF-018/CFD-WF-018-018-HO.jpg","trial_type":"html-keyboard-response","trial_index":19,"time_elapsed":197431,"internal_node_id":"0.0-17.0","condition":1,"key_mapping":1,"test_mode":false,"subject_id":"","study_id":"","session_id":"","timed_out":false,"device_pixel_ratio":2,"correct_response":"z","correct":true},{"rt":null,"stimulus":"<span class=\"fixation-cross\">+</span>","response":null,"phase":"study","trial_part":"fixation","trial_type":"html-keyboard-response","trial_index":20,"time_elapsed":199434,"internal_node_id":"0.0-18.0","condition":1,"key_mapping":1,"test_mode":false,"subject_id":"","study_id":"","session_id":""},{"rt":854,"stimulus":"<div class=\"flanker-display\" style=\"gap: 0px;\"><img src=\"materials/cfd/Images/CFD/WF-251/CFD-WF-251-014-N.jpg\" class=\"face-image\" style=\"width: 100px; height: 141px;\" /><img src=\"materials/cfd/Images/CFD/AM-206/CFD-AM-206-086-N.jpg\" class=\"face-image\" style=\"width: 100px; height: 141px;\" /><img src=\"materials/cfd/Images/CFD/WF-251/CFD-WF-251-014-N.jpg\" class=\"face-image\" style=\"width: 100px; height: 141px;\" /></div>","response":"m","phase":"study","block":0,"target_id":"AM-206","target_gender":"M","target_race":"A","target_filename":"materials/cfd/Images/CFD/AM-206/CFD-AM-206-086-N.jpg","flanker_id":"WF-251","flanker_gender":"F","flanker_race":"W","flanker_emotion":"neutral","flanker_filename":"materials/cfd/Images/CFD/WF-251/CFD-WF-251-014-N.jpg","trial_type":"html-keyboard-response","trial_index":21,"time_elapsed":202437,"internal_node_id":"0.0-19.0","condition":1,"key_mapping":1,"test_mode":false,"subject_id":"","study_id":"","session_id":"","timed_out":false,"device_pixel_ratio":2,"correct_response":"m","correct":true},{"rt":null,"stimulus":"<span class=\"fixation-cross\">+</span>","response":null,"phase":"study","trial_part":"fixation","trial_type":"html-keyboard-response","trial_index":22,"time_elapsed":204440,"internal_node_id":"0.0-20.0","condition":1,"key_mapping":1,"test_mode":false,"subject_id":"","study_id":"","session_id":""},{"rt":740,"stimulus":"<div class=\"flanker-display\" style=\"gap: 0px;\"><img src=\"materials/cfd/Images/CFD/WM-040/CFD-WM-040-022-N.jpg\" class=\"face-image\" style=\"width: 100px; height: 141px;\" /><img src=\"materials/cfd/Images/CFD/WM-223/CFD-WM-223-056-N.jpg\" class=\"face-image\" style=\"width: 100px; height: 141px;\" /><img src=\"materials/cfd/Images/CFD/WM-040/CFD-WM-040-022-N.jpg\" class=\"face-image\" style=\"width: 100px; height: 141px;\" /></div>","response":"m","phase":"study","block":0,"target_id":"WM-223","target_gender":"M","target_race":"W","target_filename":"materials/cfd/Images/CFD/WM-223/CFD-WM-223-056-N.jpg","flanker_id":"WM-040","flanker_gender":"M","flanker_race":"W","flanker_emotion":"neutral","flanker_filename":"materials/cfd/Images/CFD/WM-040/CFD-WM-040-022-N.jpg","trial_type":"html-keyboard-response","trial_index":23,"time_elapsed":207443,"internal_node_id":"0.0-21.0","condition":1,"key_mapping":1,"test_mode":false,"subject_id":"","study_id":"","session_id":"","timed_out":false,"device_pixel_ratio":2,"correct_response":"m","correct":true},{"rt":null,"stimulus":"<span class=\"fixation-cross\">+</span>","response":null,"phase":"study","trial_part":"fixation","trial_type":"html-keyboard-response","trial_index":24,"time_elapsed":209445,"internal_node_id":"0.0-22.0","condition":1,"key_mapping":1,"test_mode":false,"subject_id":"","study_id":"","session_id":""},{"rt":859,"stimulus":"<div class=\"flanker-display\" style=\"gap: 0px;\"><img src=\"materials/cfd/Images/CFD/WM-037/CFD-WM-037-060-A.jpg\" class=\"face-image\" style=\"width: 100px; height: 141px;\" /><img src=\"materials/cfd/Images/CFD/AF-226/CFD-AF-226-251-N.jpg\" class=\"face-image\" style=\"width: 100px; height: 141px;\" /><img src=\"materials/cfd/Images/CFD/WM-037/CFD-WM-037-060-A.jpg\" class=\"face-image\" style=\"width: 100px; height: 141px;\" /></div>","response":"z","phase":"study","block":0,"target_id":"AF-226","target_gender":"F","target_race":"A","target_filename":"materials/cfd/Images/CFD/AF-226/CFD-AF-226-251-N.jpg","flanker_id":"WM-037","flanker_gender":"M","flanker_race":"W","flanker_emotion":"angry","flanker_filename":"materials/cfd/Images/CFD/WM-037/CFD-WM-037-060-A.jpg","trial_type":"html-keyboard-response","trial_index":25,"time_elapsed":212448,"internal_node_id":"0.0-23.0","condition":1,"key_mapping":1,"test_mode":false,"subject_id":"","study_id":"","session_id":"","timed_out":false,"device_pixel_ratio":2,"correct_response":"z","correct":true},{"rt":null,"stimulus":"<span class=\"fixation-cross\">+</span>","response":null,"phase":"study","trial_part":"fixation","trial_type":"html-keyboard-response","trial_index":26,"time_elapsed":214451,"internal_node_id":"0.0-24.0","condition":1,"key_mapping":1,"test_mode":false,"subject_id":"","study_id":"","session_id":""},{"rt":1103,"stimulus":"<div class=\"flanker-display\" style=\"gap: 0px;\"><img src=\"materials/cfd/Images/CFD/BF-016/CFD-BF-016-020-A.jpg\" class=\"face-image\" style=\"width: 100px; height: 141px;\" /><img src=\"materials/cfd/Images/CFD/BF-047/CFD-BF-047-003-N.jpg\" class=\"face-image\" style=\"width: 100px; height: 141px;\" /><img src=\"materials/cfd/Images/CFD/BF-016/CFD-BF-016-020-A.jpg\" class=\"face-image\" style=\"width: 100px; height: 141px;\" /></div>","response":"z","phase":"study","block":0,"target_id":"BF-047","target_gender":"F","target_race":"B","target_filename":"materials/cfd/Images/CFD/BF-047/CFD-BF-047-003-N.jpg","flanker_id":"BF-016","flanker_gender":"F","flanker_race":"B","flanker_emotion":"angry","flanker_filename":"materials/cfd/Images/CFD/BF-016/CFD-BF-016-020-A.jpg","trial_type":"html-keyboard-response","trial_index":27,"time_elapsed":217454,"internal_node_id":"0.0-25.0","condition":1,"key_mapping":1,"test_mode":false,"subject_id":"","study_id":"","session_id":"","timed_out":false,"device_pixel_ratio":2,"correct_response":"z","correct":true},{"rt":null,"stimulus":"<span class=\"fixation-cross\">+</span>","response":null,"phase":"study","trial_part":"fixation","trial_type":"html-keyboard-response","trial_index":28,"time_elapsed":219456,"internal_node_id":"0.0-26.0","condition":1,"key_mapping":1,"test_mode":false,"subject_id":"","study_id":"","session_id":""},{"rt":730,"stimulus":"<div class=\"flanker-display\" style=\"gap: 0px;\"><img src=\"materials/cfd/Images/CFD/BF-019/CFD-BF-019-022-HO.jpg\" class=\"face-image\" style=\"width: 100px; height: 141px;\" /><img src=\"materials/cfd/Images/CFD/BM-227/CFD-BM-227-191-N.jpg\" class=\"face-image\" style=\"width: 100px; height: 141px;\" /><img src=\"materials/cfd/Images/CFD/BF-019/CFD-BF-019-022-HO.jpg\" class=\"face-image\" style=\"width: 100px; height: 141px;\" /></div>","response":"m","phase":"study","block":0,"target_id":"BM-227","target_gender":"M","target_race":"B","target_filename":"materials/cfd/Images/CFD/BM-227/CFD-BM-227-191-N.jpg","flanker_id":"BF-019","flanker_gender":"F","flanker_race":"B","flanker_emotion":"happy","flanker_filename":"materials/cfd/Images/CFD/BF-019/CFD-BF-019-022-HO.jpg","trial_type":"html-keyboard-response","trial_index":29,"time_elapsed":222459,"internal_node_id":"0.0-27.0","condition":1,"key_mapping":1,"test_mode":false,"subject_id":"","study_id":"","session_id":"","timed_out":false,"device_pixel_ratio":2,"correct_response":"m","correct":true},{"rt":null,"stimulus":"<span class=\"fixation-cross\">+</span>","response":null,"phase":"study","trial_part":"fixation","trial_type":"html-keyboard-response","trial_index":30,"time_elapsed":224462,"internal_node_id":"0.0-28.0","condition":1,"key_mapping":1,"test_mode":false,"subject_id":"","study_id":"","session_id":""},{"rt":905,"stimulus":"<div class=\"flanker-display\" style=\"gap: 0px;\"><img src=\"materials/cfd/Images/CFD/WM-017/CFD-WM-017-011-A.jpg\" class=\"face-image\" style=\"width: 100px; height: 141px;\" /><img src=\"materials/cfd/Images/CFD/WM-026/CFD-WM-026-001-N.jpg\" class=\"face-image\" style=\"width: 100px; height: 141px;\" /><img src=\"materials/cfd/Images/CFD/WM-017/CFD-WM-017-011-A.jpg\" class=\"face-image\" style=\"width: 100px; height: 141px;\" /></div>","response":"m","phase":"study","block":0,"target_id":"WM-026","target_gender":"M","target_race":"W","target_filename":"materials/cfd/Images/CFD/WM-026/CFD-WM-026-001-N.jpg","flanker_id":"WM-017","flanker_gender":"M","flanker_race":"W","flanker_emotion":"angry","flanker_filename":"materials/cfd/Images/CFD/WM-017/CFD-WM-017-011-A.jpg","trial_type":"html-keyboard-response","trial_index":31,"time_elapsed":227465,"internal_node_id":"0.0-29.0","condition":1,"key_mapping":1,"test_mode":false,"subject_id":"","study_id":"","session_id":"","timed_out":false,"device_pixel_ratio":2,"correct_response":"m","correct":true},{"rt":null,"stimulus":"<span class=\"fixation-cross\">+</span>","response":null,"phase":"study","trial_part":"fixation","trial_type":"html-keyboard-response","trial_index":32,"time_elapsed":229467,"internal_node_id":"0.0-30.0","condition":1,"key_mapping":1,"test_mode":false,"subject_id":"","study_id":"","session_id":""},{"rt":929,"stimulus":"<div class=\"flanker-display\" style=\"gap: 0px;\"><img src=\"materials/cfd/Images/CFD/BM-030/CFD-BM-030-004-HO.jpg\" class=\"face-image\" style=\"width: 100px; height: 141px;\" /><img src=\"materials/cfd/Images/CFD/BM-209/CFD-BM-209-088-N.jpg\" class=\"face-image\" style=\"width: 100px; height: 141px;\" /><img src=\"materials/cfd/Images/CFD/BM-030/CFD-BM-030-004-HO.jpg\" class=\"face-image\" style=\"width: 100px; height: 141px;\" /></div>","response":"m","phase":"study","block":0,"target_id":"BM-209","target_gender":"M","target_race":"B","target_filename":"materials/cfd/Images/CFD/BM-209/CFD-BM-209-088-N.jpg","flanker_id":"BM-030","flanker_gender":"M","flanker_race":"B","flanker_emotion":"happy","flanker_filename":"materials/cfd/Images/CFD/BM-030/CFD-BM-030-004-HO.jpg","trial_type":"html-keyboard-response","trial_index":33,"time_elapsed":232471,"internal_node_id":"0.0-31.0","condition":1,"key_mapping":1,"test_mode":false,"subject_id":"","study_id":"","session_id":"","timed_out":false,"device_pixel_ratio":2,"correct_response":"m","correct":true},{"rt":null,"stimulus":"<span class=\"fixation-cross\">+</span>","response":null,"phase":"study","trial_part":"fixation","trial_type":"html-keyboard-response","trial_index":34,"time_elapsed":234473,"internal_node_id":"0.0-32.0","condition":1,"key_mapping":1,"test_mode":false,"subject_id":"","study_id":"","session_id":""},{"rt":767,"stimulus":"<div class=\"flanker-display\" style=\"gap: 0px;\"><img src=\"materials/cfd/Images/CFD/BF-017/CFD-BF-017-004-HO.jpg\" class=\"face-image\" style=\"width: 100px; height: 141px;\" /><img src=\"materials/cfd/Images/CFD/WM-237/CFD-WM-237-052-N.jpg\" class=\"face-image\" style=\"width: 100px; height: 141px;\" /><img src=\"materials/cfd/Images/CFD/BF-017/CFD-BF-017-004-HO.jpg\" class=\"face-image\" style=\"width: 100px; height: 141px;\" /></div>","response":"m","phase":"study","block":0,"target_id":"WM-237","target_gender":"M","target_race":"W","target_filename":"materials/cfd/Images/CFD/WM-237/CFD-WM-237-052-N.jpg","flanker_id":"BF-017","flanker_gender":"F","flanker_race":"B","flanker_emotion":"happy","flanker_filename":"materials/cfd/Images/CFD/BF-017/CFD-BF-017-004-HO.jpg","trial_type":"html-keyboard-response","trial_index":35,"time_elapsed":237476,"internal_node_id":"0.0-33.0","condition":1,"key_mapping":1,"test_mode":false,"subject_id":"","study_id":"","session_id":"","timed_out":false,"device_pixel_ratio":2,"correct_response":"m","correct":true},{"rt":null,"stimulus":"<span class=\"fixation-cross\">+</span>","response":null,"phase":"study","trial_part":"fixation","trial_type":"html-keyboard-response","trial_index":36,"time_elapsed":239479,"internal_node_id":"0.0-34.0","condition":1,"key_mapping":1,"test_mode":false,"subject_id":"","study_id":"","session_id":""},{"rt":626,"stimulus":"<div class=\"flanker-display\" style=\"gap: 0px;\"><img src=\"materials/cfd/Images/CFD/BM-041/CFD-BM-041-048-A.jpg\" class=\"face-image\" style=\"width: 100px; height: 141px;\" /><img src=\"materials/cfd/Images/CFD/WM-245/CFD-WM-245-123-N.jpg\" class=\"face-image\" style=\"width: 100px; height: 141px;\" /><img src=\"materials/cfd/Images/CFD/BM-041/CFD-BM-041-048-A.jpg\" class=\"face-image\" style=\"width: 100px; height: 141px;\" /></div>","response":"m","phase":"study","block":0,"target_id":"WM-245","target_gender":"M","target_race":"W","target_filename":"materials/cfd/Images/CFD/WM-245/CFD-WM-245-123-N.jpg","flanker_id":"BM-041","flanker_gender":"M","flanker_race":"B","flanker_emotion":"angry","flanker_filename":"materials/cfd/Images/CFD/BM-041/CFD-BM-041-048-A.jpg","trial_type":"html-keyboard-response","trial_index":37,"time_elapsed":242481,"internal_node_id":"0.0-35.0","condition":1,"key_mapping":1,"test_mode":false,"subject_id":"","study_id":"","session_id":"","timed_out":false,"device_pixel_ratio":2,"correct_response":"m","correct":true},{"rt":null,"stimulus":"<span class=\"fixation-cross\">+</span>","response":null,"phase":"study","trial_part":"fixation","trial_type":"html-keyboard-response","trial_index":38,"time_elapsed":244484,"internal_node_id":"0.0-36.0","condition":1,"key_mapping":1,"test_mode":false,"subject_id":"","study_id":"","session_id":""},{"rt":929,"stimulus":"<div class=\"flanker-display\" style=\"gap: 0px;\"><img src=\"materials/cfd/Images/CFD/BF-212/CFD-BF-212-315-N.jpg\" class=\"face-image\" style=\"width: 100px; height: 141px;\" /><img src=\"materials/cfd/Images/CFD/BF-217/CFD-BF-217-189-N.jpg\" class=\"face-image\" style=\"width: 100px; height: 141px;\" /><img src=\"materials/cfd/Images/CFD/BF-212/CFD-BF-212-315-N.jpg\" class=\"face-image\" style=\"width: 100px; height: 141px;\" /></div>","response":"z","phase":"study","block":0,"target_id":"BF-217","target_gender":"F","target_race":"B","target_filename":"materials/cfd/Images/CFD/BF-217/CFD-BF-217-189-N.jpg","flanker_id":"BF-212","flanker_gender":"F","flanker_race":"B","flanker_emotion":"neutral","flanker_filename":"materials/cfd/Images/CFD/BF-212/CFD-BF-212-315-N.jpg","trial_type":"html-keyboard-response","trial_index":39,"time_elapsed":247487,"internal_node_id":"0.0-37.0","condition":1,"key_mapping":1,"test_mode":false,"subject_id":"","study_id":"","session_id":"","timed_out":false,"device_pixel_ratio":2,"correct_response":"z","correct":true},{"rt":null,"stimulus":"<span class=\"fixation-cross\">+</span>","response":null,"phase":"study","trial_part":"fixation","trial_type":"html-keyboard-response","trial_index":40,"time_elapsed":249489,"internal_node_id":"0.0-38.0","condition":1,"key_mapping":1,"test_mode":false,"subject_id":"","study_id":"","session_id":""},{"rt":800,"stimulus":"<div class=\"flanker-display\" style=\"gap: 0px;\"><img src=\"materials/cfd/Images/CFD/WM-015/CFD-WM-015-005-HO.jpg\" class=\"face-image\" style=\"width: 100px; height: 141px;\" /><img src=\"materials/cfd/Images/CFD/AF-227/CFD-AF-227-207-N.jpg\" class=\"face-image\" style=\"width: 100px; height: 141px;\" /><img src=\"materials/cfd/Images/CFD/WM-015/CFD-WM-015-005-HO.jpg\" class=\"face-image\" style=\"width: 100px; height: 141px;\" /></div>","response":"z","phase":"study","block":0,"target_id":"AF-227","target_gender":"F","target_race":"A","target_filename":"materials/cfd/Images/CFD/AF-227/CFD-AF-227-207-N.jpg","flanker_id":"WM-015","flanker_gender":"M","flanker_race":"W","flanker_emotion":"happy","flanker_filename":"materials/cfd/Images/CFD/WM-015/CFD-WM-015-005-HO.jpg","trial_type":"html-keyboard-response","trial_index":41,"time_elapsed":252492,"internal_node_id":"0.0-39.0","condition":1,"key_mapping":1,"test_mode":false,"subject_id":"","study_id":"","session_id":"","timed_out":false,"device_pixel_ratio":2,"correct_response":"z","correct":true},{"rt":null,"stimulus":"<span class=\"fixation-cross\">+</span>","response":null,"phase":"study","trial_part":"fixation","trial_type":"html-keyboard-response","trial_index":42,"time_elapsed":254494,"internal_node_id":"0.0-40.0","condition":1,"key_mapping":1,"test_mode":false,"subject_id":"","study_id":"","session_id":""},{"rt":813,"stimulus":"<div class=\"flanker-display\" style=\"gap: 0px;\"><img src=\"materials/cfd/Images/CFD/BM-237/CFD-BM-237-188-N.jpg\" class=\"face-image\" style=\"width: 100px; height: 141px;\" /><img src=\"materials/cfd/Images/CFD/BF-254/CFD-BF-254-201-N.jpg\" class=\"face-image\" style=\"width: 100px; height: 141px;\" /><img src=\"materials/cfd/Images/CFD/BM-237/CFD-BM-237-188-N.jpg\" class=\"face-image\" style=\"width: 100px; height: 141px;\" /></div>","response":"z","phase":"study","block":0,"target_id":"BF-254","target_gender":"F","target_race":"B","target_filename":"materials/cfd/Images/CFD/BF-254/CFD-BF-254-201-N.jpg","flanker_id":"BM-237","flanker_gender":"M","flanker_race":"B","flanker_emotion":"neutral","flanker_filename":"materials/cfd/Images/CFD/BM-237/CFD-BM-237-188-N.jpg","trial_type":"html-keyboard-response","trial_index":43,"time_elapsed":257497,"internal_node_id":"0.0-41.0","condition":1,"key_mapping":1,"test_mode":false,"subject_id":"","study_id":"","session_id":"","timed_out":false,"device_pixel_ratio":2,"correct_response":"z","correct":true},{"rt":null,"stimulus":"<span class=\"fixation-cross\">+</span>","response":null,"phase":"study","trial_part":"fixation","trial_type":"html-keyboard-response","trial_index":44,"time_elapsed":259499,"internal_node_id":"0.0-42.0","condition":1,"key_mapping":1,"test_mode":false,"subject_id":"","study_id":"","session_id":""},{"rt":676,"stimulus":"<div class=\"flanker-display\" style=\"gap: 0px;\"><img src=\"materials/cfd/Images/CFD/BM-043/CFD-BM-043-076-HO.jpg\" class=\"face-image\" style=\"width: 100px; height: 141px;\" /><img src=\"materials/cfd/Images/CFD/WF-012/CFD-WF-012-002-N.jpg\" class=\"face-image\" style=\"width: 100px; height: 141px;\" /><img src=\"materials/cfd/Images/CFD/BM-043/CFD-BM-043-076-HO.jpg\" class=\"face-image\" style=\"width: 100px; height: 141px;\" /></div>","response":"z","phase":"study","block":0,"target_id":"WF-012","target_gender":"F","target_race":"W","target_filename":"materials/cfd/Images/CFD/WF-012/CFD-WF-012-002-N.jpg","flanker_id":"BM-043","flanker_gender":"M","flanker_race":"B","flanker_emotion":"happy","flanker_filename":"materials/cfd/Images/CFD/BM-043/CFD-BM-043-076-HO.jpg","trial_type":"html-keyboard-response","trial_index":45,"time_elapsed":262503,"internal_node_id":"0.0-43.0","condition":1,"key_mapping":1,"test_mode":false,"subject_id":"","study_id":"","session_id":"","timed_out":false,"device_pixel_ratio":2,"correct_response":"z","correct":true},{"rt":null,"stimulus":"<span class=\"fixation-cross\">+</span>","response":null,"phase":"study","trial_part":"fixation","trial_type":"html-keyboard-response","trial_index":46,"time_elapsed":264505,"internal_node_id":"0.0-44.0","condition":1,"key_mapping":1,"test_mode":false,"subject_id":"","study_id":"","session_id":""},{"rt":799,"stimulus":"<div class=\"flanker-display\" style=\"gap: 0px;\"><img src=\"materials/cfd/Images/CFD/WM-031/CFD-WM-031-004-HO.jpg\" class=\"face-image\" style=\"width: 100px; height: 141px;\" /><img src=\"materials/cfd/Images/CFD/AF-224/CFD-AF-224-026-N.jpg\" class=\"face-image\" style=\"width: 100px; height: 141px;\" /><img src=\"materials/cfd/Images/CFD/WM-031/CFD-WM-031-004-HO.jpg\" class=\"face-image\" style=\"width: 100px; height: 141px;\" /></div>","response":"z","phase":"study","block":0,"target_id":"AF-224","target_gender":"F","target_race":"A","target_filename":"materials/cfd/Images/CFD/AF-224/CFD-AF-224-026-N.jpg","flanker_id":"WM-031","flanker_gender":"M","flanker_race":"W","flanker_emotion":"happy","flanker_filename":"materials/cfd/Images/CFD/WM-031/CFD-WM-031-004-HO.jpg","trial_type":"html-keyboard-response","trial_index":47,"time_elapsed":267509,"internal_node_id":"0.0-45.0","condition":1,"key_mapping":1,"test_mode":false,"subject_id":"","study_id":"","session_id":"","timed_out":false,"device_pixel_ratio":2,"correct_response":"z","correct":true},{"rt":null,"stimulus":"<span class=\"fixation-cross\">+</span>","response":null,"phase":"study","trial_part":"fixation","trial_type":"html-keyboard-response","trial_index":48,"time_elapsed":269511,"internal_node_id":"0.0-46.0","condition":1,"key_mapping":1,"test_mode":false,"subject_id":"","study_id":"","session_id":""},{"rt":840,"stimulus":"<div class=\"flanker-display\" style=\"gap: 0px;\"><img src=\"materials/cfd/Images/CFD/WF-002/CFD-WF-002-033-A.jpg\" class=\"face-image\" style=\"width: 100px; height: 141px;\" /><img src=\"materials/cfd/Images/CFD/BM-242/CFD-BM-242-233-N.jpg\" class=\"face-image\" style=\"width: 100px; height: 141px;\" /><img src=\"materials/cfd/Images/CFD/WF-002/CFD-WF-002-033-A.jpg\" class=\"face-image\" style=\"width: 100px; height: 141px;\" /></div>","response":"m","phase":"study","block":0,"target_id":"BM-242","target_gender":"M","target_race":"B","target_filename":"materials/cfd/Images/CFD/BM-242/CFD-BM-242-233-N.jpg","flanker_id":"WF-002","flanker_gender":"F","flanker_race":"W","flanker_emotion":"angry","flanker_filename":"materials/cfd/Images/CFD/WF-002/CFD-WF-002-033-A.jpg","trial_type":"html-keyboard-response","trial_index":49,"time_elapsed":272515,"internal_node_id":"0.0-47.0","condition":1,"key_mapping":1,"test_mode":false,"subject_id":"","study_id":"","session_id":"","timed_out":false,"device_pixel_ratio":2,"correct_response":"m","correct":true},{"rt":null,"stimulus":"<span class=\"fixation-cross\">+</span>","response":null,"phase":"study","trial_part":"fixation","trial_type":"html-keyboard-response","trial_index":50,"time_elapsed":274517,"internal_node_id":"0.0-48.0","condition":1,"key_mapping":1,"test_mode":false,"subject_id":"","study_id":"","session_id":""},{"rt":1070,"stimulus":"<div class=\"flanker-display\" style=\"gap: 0px;\"><img src=\"materials/cfd/Images/CFD/BF-041/CFD-BF-041-004-HO.jpg\" class=\"face-image\" style=\"width: 100px; height: 141px;\" /><img src=\"materials/cfd/Images/CFD/BF-025/CFD-BF-025-002-N.jpg\" class=\"face-image\" style=\"width: 100px; height: 141px;\" /><img src=\"materials/cfd/Images/CFD/BF-041/CFD-BF-041-004-HO.jpg\" class=\"face-image\" style=\"width: 100px; height: 141px;\" /></div>","response":"z","phase":"study","block":0,"target_id":"BF-025","target_gender":"F","target_race":"B","target_filename":"materials/cfd/Images/CFD/BF-025/CFD-BF-025-002-N.jpg","flanker_id":"BF-041","flanker_gender":"F","flanker_race":"B","flanker_emotion":"happy","flanker_filename":"materials/cfd/Images/CFD/BF-041/CFD-BF-041-004-HO.jpg","trial_type":"html-keyboard-response","trial_index":51,"time_elapsed":277520,"internal_node_id":"0.0-49.0","condition":1,"key_mapping":1,"test_mode":false,"subject_id":"","study_id":"","session_id":"","timed_out":false,"device_pixel_ratio":2,"correct_response":"z","correct":true},{"rt":null,"stimulus":"<span class=\"fixation-cross\">+</span>","response":null,"phase":"study","trial_part":"fixation","trial_type":"html-keyboard-response","trial_index":52,"time_elapsed":279523,"internal_node_id":"0.0-50.0","condition":1,"key_mapping":1,"test_mode":false,"subject_id":"","study_id":"","session_id":""},{"rt":2000,"stimulus":"<div class=\"flanker-display\" style=\"gap: 0px;\"><img src=\"materials/cfd/Images/CFD/WM-011/CFD-WM-011-002-N.jpg\" class=\"face-image\" style=\"width: 100px; height: 141px;\" /><img src=\"materials/cfd/Images/CFD/AF-241/CFD-AF-241-141-N.jpg\" class=\"face-image\" style=\"width: 100px; height: 141px;\" /><img src=\"materials/cfd/Images/CFD/WM-011/CFD-WM-011-002-N.jpg\" class=\"face-image\" style=\"width: 100px; height: 141px;\" /></div>","response":"z","phase":"study","block":0,"target_id":"AF-241","target_gender":"F","target_race":"A","target_filename":"materials/cfd/Images/CFD/AF-241/CFD-AF-241-141-N.jpg","flanker_id":"WM-011","flanker_gender":"M","flanker_race":"W","flanker_emotion":"neutral","flanker_filename":"materials/cfd/Images/CFD/WM-011/CFD-WM-011-002-N.jpg","trial_type":"html-keyboard-response","trial_index":53,"time_elapsed":282525,"internal_node_id":"0.0-51.0","condition":1,"key_mapping":1,"test_mode":false,"subject_id":"","study_id":"","session_id":"","timed_out":false,"device_pixel_ratio":2,"correct_response":"z","correct":true},{"rt":null,"stimulus":"<span class=\"fixation-cross\">+</span>","response":null,"phase":"study","trial_part":"fixation","trial_type":"html-keyboard-response","trial_index":54,"time_elapsed":284528,"internal_node_id":"0.0-52.0","condition":1,"key_mapping":1,"test_mode":false,"subject_id":"","study_id":"","session_id":""},{"rt":686,"stimulus":"<div class=\"flanker-display\" style=\"gap: 0px;\"><img src=\"materials/cfd/Images/CFD/BF-044/CFD-BF-044-007-HO.jpg\" class=\"face-image\" style=\"width: 100px; height: 141px;\" /><img src=\"materials/cfd/Images/CFD/WM-041/CFD-WM-041-021-N.jpg\" class=\"face-image\" style=\"width: 100px; height: 141px;\" /><img src=\"materials/cfd/Images/CFD/BF-044/CFD-BF-044-007-HO.jpg\" class=\"face-image\" style=\"width: 100px; height: 141px;\" /></div>","response":"m","phase":"study","block":0,"target_id":"WM-041","target_gender":"M","target_race":"W","target_filename":"materials/cfd/Images/CFD/WM-041/CFD-WM-041-021-N.jpg","flanker_id":"BF-044","flanker_gender":"F","flanker_race":"B","flanker_emotion":"happy","flanker_filename":"materials/cfd/Images/CFD/BF-044/CFD-BF-044-007-HO.jpg","trial_type":"html-keyboard-response","trial_index":55,"time_elapsed":287531,"internal_node_id":"0.0-53.0","condition":1,"key_mapping":1,"test_mode":false,"subject_id":"","study_id":"","session_id":"","timed_out":false,"device_pixel_ratio":2,"correct_response":"m","correct":true},{"rt":null,"stimulus":"<span class=\"fixation-cross\">+</span>","response":null,"phase":"study","trial_part":"fixation","trial_type":"html-keyboard-response","trial_index":56,"time_elapsed":289533,"internal_node_id":"0.0-54.0","condition":1,"key_mapping":1,"test_mode":false,"subject_id":"","study_id":"","session_id":""},{"rt":729,"stimulus":"<div class=\"flanker-display\" style=\"gap: 0px;\"><img src=\"materials/cfd/Images/CFD/BF-010/CFD-BF-010-003-HO.jpg\" class=\"face-image\" style=\"width: 100px; height: 141px;\" /><img src=\"materials/cfd/Images/CFD/LF-254/CFD-LF-254-125-N.jpg\" class=\"face-image\" style=\"width: 100px; height: 141px;\" /><img src=\"materials/cfd/Images/CFD/BF-010/CFD-BF-010-003-HO.jpg\" class=\"face-image\" style=\"width: 100px; height: 141px;\" /></div>","response":"z","phase":"study","block":0,"target_id":"LF-254","target_gender":"F","target_race":"L","target_filename":"materials/cfd/Images/CFD/LF-254/CFD-LF-254-125-N.jpg","flanker_id":"BF-010","flanker_gender":"F","flanker_race":"B","flanker_emotion":"happy","flanker_filename":"materials/cfd/Images/CFD/BF-010/CFD-BF-010-003-HO.jpg","trial_type":"html-keyboard-response","trial_index":57,"time_elapsed":292536,"internal_node_id":"0.0-55.0","condition":1,"key_mapping":1,"test_mode":false,"subject_id":"","study_id":"","session_id":"","timed_out":false,"device_pixel_ratio":2,"correct_response":"z","correct":true},{"rt":null,"stimulus":"<span class=\"fixation-cross\">+</span>","response":null,"phase":"study","trial_part":"fixation","trial_type":"html-keyboard-response","trial_index":58,"time_elapsed":294538,"internal_node_id":"0.0-56.0","condition":1,"key_mapping":1,"test_mode":false,"subject_id":"","study_id":"","session_id":""},{"rt":671,"stimulus":"<div class=\"flanker-display\" style=\"gap: 0px;\"><img src=\"materials/cfd/Images/CFD/WF-205/CFD-WF-205-006-N.jpg\" class=\"face-image\" style=\"width: 100px; height: 141px;\" /><img src=\"materials/cfd/Images/CFD/BM-004/CFD-BM-004-002-N.jpg\" class=\"face-image\" style=\"width: 100px; height: 141px;\" /><img src=\"materials/cfd/Images/CFD/WF-205/CFD-WF-205-006-N.jpg\" class=\"face-image\" style=\"width: 100px; height: 141px;\" /></div>","response":"m","phase":"study","block":0,"target_id":"BM-004","target_gender":"M","target_race":"B","target_filename":"materials/cfd/Images/CFD/BM-004/CFD-BM-004-002-N.jpg","flanker_id":"WF-205","flanker_gender":"F","flanker_race":"W","flanker_emotion":"neutral","flanker_filename":"materials/cfd/Images/CFD/WF-205/CFD-WF-205-006-N.jpg","trial_type":"html-keyboard-response","trial_index":59,"time_elapsed":297542,"internal_node_id":"0.0-57.0","condition":1,"key_mapping":1,"test_mode":false,"subject_id":"","study_id":"","session_id":"","timed_out":false,"device_pixel_ratio":2,"correct_response":"m","correct":true},{"rt":null,"stimulus":"<span class=\"fixation-cross\">+</span>","response":null,"phase":"study","trial_part":"fixation","trial_type":"html-keyboard-response","trial_index":60,"time_elapsed":299544,"internal_node_id":"0.0-58.0","condition":1,"key_mapping":1,"test_mode":false,"subject_id":"","study_id":"","session_id":""},{"rt":685,"stimulus":"<div class=\"flanker-display\" style=\"gap: 0px;\"><img src=\"materials/cfd/Images/CFD/BM-026/CFD-BM-026-009-HO.jpg\" class=\"face-image\" style=\"width: 100px; height: 141px;\" /><img src=\"materials/cfd/Images/CFD/AM-216/CFD-AM-216-114-N.jpg\" class=\"face-image\" style=\"width: 100px; height: 141px;\" /><img src=\"materials/cfd/Images/CFD/BM-026/CFD-BM-026-009-HO.jpg\" class=\"face-image\" style=\"width: 100px; height: 141px;\" /></div>","response":"m","phase":"study","block":0,"target_id":"AM-216","target_gender":"M","target_race":"A","target_filename":"materials/cfd/Images/CFD/AM-216/CFD-AM-216-114-N.jpg","flanker_id":"BM-026","flanker_gender":"M","flanker_race":"B","flanker_emotion":"happy","flanker_filename":"materials/cfd/Images/CFD/BM-026/CFD-BM-026-009-HO.jpg","trial_type":"html-keyboard-response","trial_index":61,"time_elapsed":302547,"internal_node_id":"0.0-59.0","condition":1,"key_mapping":1,"test_mode":false,"subject_id":"","study_id":"","session_id":"","timed_out":false,"device_pixel_ratio":2,"correct_response":"m","correct":true},{"rt":null,"stimulus":"<span class=\"fixation-cross\">+</span>","response":null,"phase":"study","trial_part":"fixation","trial_type":"html-keyboard-response","trial_index":62,"time_elapsed":304550,"internal_node_id":"0.0-60.0","condition":1,"key_mapping":1,"test_mode":false,"subject_id":"","study_id":"","session_id":""},{"rt":796,"stimulus":"<div class=\"flanker-display\" style=\"gap: 0px;\"><img src=\"materials/cfd/Images/CFD/WM-016/CFD-WM-016-001-N.jpg\" class=\"face-image\" style=\"width: 100px; height: 141px;\" /><img src=\"materials/cfd/Images/CFD/AF-251/CFD-AF-251-093-N.jpg\" class=\"face-image\" style=\"width: 100px; height: 141px;\" /><img src=\"materials/cfd/Images/CFD/WM-016/CFD-WM-016-001-N.jpg\" class=\"face-image\" style=\"width: 100px; height: 141px;\" /></div>","response":"z","phase":"study","block":0,"target_id":"AF-251","target_gender":"F","target_race":"A","target_filename":"materials/cfd/Images/CFD/AF-251/CFD-AF-251-093-N.jpg","flanker_id":"WM-016","flanker_gender":"M","flanker_race":"W","flanker_emotion":"neutral","flanker_filename":"materials/cfd/Images/CFD/WM-016/CFD-WM-016-001-N.jpg","trial_type":"html-keyboard-response","trial_index":63,"time_elapsed":307553,"internal_node_id":"0.0-61.0","condition":1,"key_mapping":1,"test_mode":false,"subject_id":"","study_id":"","session_id":"","timed_out":false,"device_pixel_ratio":2,"correct_response":"z","correct":true},{"rt":null,"stimulus":"<span class=\"fixation-cross\">+</span>","response":null,"phase":"study","trial_part":"fixation","trial_type":"html-keyboard-response","trial_index":64,"time_elapsed":309555,"internal_node_id":"0.0-62.0","condition":1,"key_mapping":1,"test_mode":false,"subject_id":"","study_id":"","session_id":""},{"rt":886,"stimulus":"<div class=\"flanker-display\" style=\"gap: 0px;\"><img src=\"materials/cfd/Images/CFD/WM-213/CFD-WM-213-076-N.jpg\" class=\"face-image\" style=\"width: 100px; height: 141px;\" /><img src=\"materials/cfd/Images/CFD/BM-010/CFD-BM-010-003-N.jpg\" class=\"face-image\" style=\"width: 100px; height: 141px;\" /><img src=\"materials/cfd/Images/CFD/WM-213/CFD-WM-213-076-N.jpg\" class=\"face-image\" style=\"width: 100px; height: 141px;\" /></div>","response":"m","phase":"study","block":0,"target_id":"BM-010","target_gender":"M","target_race":"B","target_filename":"materials/cfd/Images/CFD/BM-010/CFD-BM-010-003-N.jpg","flanker_id":"WM-213","flanker_gender":"M","flanker_race":"W","flanker_emotion":"neutral","flanker_filename":"materials/cfd/Images/CFD/WM-213/CFD-WM-213-076-N.jpg","trial_type":"html-keyboard-response","trial_index":65,"time_elapsed":312558,"internal_node_id":"0.0-63.0","condition":1,"key_mapping":1,"test_mode":false,"subject_id":"","study_id":"","session_id":"","timed_out":false,"device_pixel_ratio":2,"correct_response":"m","correct":true},{"rt":null,"stimulus":"<span class=\"fixation-cross\">+</span>","response":null,"phase":"study","trial_part":"fixation","trial_type":"html-keyboard-response","trial_index":66,"time_elapsed":314560,"internal_node_id":"0.0-64.0","condition":1,"key_mapping":1,"test_mode":false,"subject_id":"","study_id":"","session_id":""},{"rt":764,"stimulus":"<div class=\"flanker-display\" style=\"gap: 0px;\"><img src=\"materials/cfd/Images/CFD/BF-228/CFD-BF-228-212-N.jpg\" class=\"face-image\" style=\"width: 100px; height: 141px;\" /><img src=\"materials/cfd/Images/CFD/BM-200/CFD-BM-200-046-N.jpg\" class=\"face-image\" style=\"width: 100px; height: 141px;\" /><img src=\"materials/cfd/Images/CFD/BF-228/CFD-BF-228-212-N.jpg\" class=\"face-image\" style=\"width: 100px; height: 141px;\" /></div>","response":"m","phase":"study","block":0,"target_id":"BM-200","target_gender":"M","target_race":"B","target_filename":"materials/cfd/Images/CFD/BM-200/CFD-BM-200-046-N.jpg","flanker_id":"BF-228","flanker_gender":"F","flanker_race":"B","flanker_emotion":"neutral","flanker_filename":"materials/cfd/Images/CFD/BF-228/CFD-BF-228-212-N.jpg","trial_type":"html-keyboard-response","trial_index":67,"time_elapsed":317563,"internal_node_id":"0.0-65.0","condition":1,"key_mapping":1,"test_mode":false,"subject_id":"","study_id":"","session_id":"","timed_out":false,"device_pixel_ratio":2,"correct_response":"m","correct":true},{"rt":null,"stimulus":"<span class=\"fixation-cross\">+</span>","response":null,"phase":"study","trial_part":"fixation","trial_type":"html-keyboard-response","trial_index":68,"time_elapsed":319566,"internal_node_id":"0.0-66.0","condition":1,"key_mapping":1,"test_mode":false,"subject_id":"","study_id":"","session_id":""},{"rt":815,"stimulus":"<div class=\"flanker-display\" style=\"gap: 0px;\"><img src=\"materials/cfd/Images/CFD/WF-019/CFD-WF-019-015-A.jpg\" class=\"face-image\" style=\"width: 100px; height: 141px;\" /><img src=\"materials/cfd/Images/CFD/WM-257/CFD-WM-257-161-N.jpg\" class=\"face-image\" style=\"width: 100px; height: 141px;\" /><img src=\"materials/cfd/Images/CFD/WF-019/CFD-WF-019-015-A.jpg\" class=\"face-image\" style=\"width: 100px; height: 141px;\" /></div>","response":"m","phase":"study","block":0,"target_id":"WM-257","target_gender":"M","target_race":"W","target_filename":"materials/cfd/Images/CFD/WM-257/CFD-WM-257-161-N.jpg","flanker_id":"WF-019","flanker_gender":"F","flanker_race":"W","flanker_emotion":"angry","flanker_filename":"materials/cfd/Images/CFD/WF-019/CFD-WF-019-015-A.jpg","trial_type":"html-keyboard-response","trial_index":69,"time_elapsed":322569,"internal_node_id":"0.0-67.0","condition":1,"key_mapping":1,"test_mode":false,"subject_id":"","study_id":"","session_id":"","timed_out":false,"device_pixel_ratio":2,"correct_response":"m","correct":true},{"rt":null,"stimulus":"<span class=\"fixation-cross\">+</span>","response":null,"phase":"study","trial_part":"fixation","trial_type":"html-keyboard-response","trial_index":70,"time_elapsed":324571,"internal_node_id":"0.0-68.0","condition":1,"key_mapping":1,"test_mode":false,"subject_id":"","study_id":"","session_id":""},{"rt":989,"stimulus":"<div class=\"flanker-display\" style=\"gap: 0px;\"><img src=\"materials/cfd/Images/CFD/WM-010/CFD-WM-010-001-N.jpg\" class=\"face-image\" style=\"width: 100px; height: 141px;\" /><img src=\"materials/cfd/Images/CFD/BM-233/CFD-BM-233-285-N.jpg\" class=\"face-image\" style=\"width: 100px; height: 141px;\" /><img src=\"materials/cfd/Images/CFD/WM-010/CFD-WM-010-001-N.jpg\" class=\"face-image\" style=\"width: 100px; height: 141px;\" /></div>","response":"m","phase":"study","block":0,"target_id":"BM-233","target_gender":"M","target_race":"B","target_filename":"materials/cfd/Images/CFD/BM-233/CFD-BM-233-285-N.jpg","flanker_id":"WM-010","flanker_gender":"M","flanker_race":"W","flanker_emotion":"neutral","flanker_filename":"materials/cfd/Images/CFD/WM-010/CFD-WM-010-001-N.jpg","trial_type":"html-keyboard-response","trial_index":71,"time_elapsed":327575,"internal_node_id":"0.0-69.0","condition":1,"key_mapping":1,"test_mode":false,"subject_id":"","study_id":"","session_id":"","timed_out":false,"device_pixel_ratio":2,"correct_response":"m","correct":true},{"rt":null,"stimulus":"<span class=\"fixation-cross\">+</span>","response":null,"phase":"study","trial_part":"fixation","trial_type":"html-keyboard-response","trial_index":72,"time_elapsed":329577,"internal_node_id":"0.0-70.0","condition":1,"key_mapping":1,"test_mode":false,"subject_id":"","study_id":"","session_id":""},{"rt":711,"stimulus":"<div class=\"flanker-display\" style=\"gap: 0px;\"><img src=\"materials/cfd/Images/CFD/WF-013/CFD-WF-013-006-HO.jpg\" class=\"face-image\" style=\"width: 100px; height: 141px;\" /><img src=\"materials/cfd/Images/CFD/AF-255/CFD-AF-255-209-N.jpg\" class=\"face-image\" style=\"width: 100px; height: 141px;\" /><img src=\"materials/cfd/Images/CFD/WF-013/CFD-WF-013-006-HO.jpg\" class=\"face-image\" style=\"width: 100px; height: 141px;\" /></div>","response":"z","phase":"study","block":0,"target_id":"AF-255","target_gender":"F","target_race":"A","target_filename":"materials/cfd/Images/CFD/AF-255/CFD-AF-255-209-N.jpg","flanker_id":"WF-013","flanker_gender":"F","flanker_race":"W","flanker_emotion":"happy","flanker_filename":"materials/cfd/Images/CFD/WF-013/CFD-WF-013-006-HO.jpg","trial_type":"html-keyboard-response","trial_index":73,"time_elapsed":332580,"internal_node_id":"0.0-71.0","condition":1,"key_mapping":1,"test_mode":false,"subject_id":"","study_id":"","session_id":"","timed_out":false,"device_pixel_ratio":2,"correct_response":"z","correct":true},{"rt":null,"stimulus":"<span class=\"fixation-cross\">+</span>","response":null,"phase":"study","trial_part":"fixation","trial_type":"html-keyboard-response","trial_index":74,"time_elapsed":334582,"internal_node_id":"0.0-72.0","condition":1,"key_mapping":1,"test_mode":false,"subject_id":"","study_id":"","session_id":""},{"rt":777,"stimulus":"<div class=\"flanker-display\" style=\"gap: 0px;\"><img src=\"materials/cfd/Images/CFD/BF-035/CFD-BF-035-009-A.jpg\" class=\"face-image\" style=\"width: 100px; height: 141px;\" /><img src=\"materials/cfd/Images/CFD/BF-241/CFD-BF-241-222-N.jpg\" class=\"face-image\" style=\"width: 100px; height: 141px;\" /><img src=\"materials/cfd/Images/CFD/BF-035/CFD-BF-035-009-A.jpg\" class=\"face-image\" style=\"width: 100px; height: 141px;\" /></div>","response":"z","phase":"study","block":0,"target_id":"BF-241","target_gender":"F","target_race":"B","target_filename":"materials/cfd/Images/CFD/BF-241/CFD-BF-241-222-N.jpg","flanker_id":"BF-035","flanker_gender":"F","flanker_race":"B","flanker_emotion":"angry","flanker_filename":"materials/cfd/Images/CFD/BF-035/CFD-BF-035-009-A.jpg","trial_type":"html-keyboard-response","trial_index":75,"time_elapsed":337585,"internal_node_id":"0.0-73.0","condition":1,"key_mapping":1,"test_mode":false,"subject_id":"","study_id":"","session_id":"","timed_out":false,"device_pixel_ratio":2,"correct_response":"z","correct":true},{"rt":2658,"stimulus":"<h2>Rest Break</h2><p>You have completed block 1 of 2.</p><p>Take a short break if you need one.</p><p>Reminder: <strong>Z</strong> = FEMALE &nbsp;&nbsp; <strong>M</strong> = MALE</p><p>Press any key to continue.</p>","response":"m","trial_type":"html-keyboard-response","trial_index":76,"time_elapsed":340244,"internal_node_id":"0.0-74.0","condition":1,"key_mapping":1,"test_mode":false,"subject_id":"","study_id":"","session_id":""},{"rt":null,"stimulus":"<span class=\"fixation-cross\">+</span>","response":null,"phase":"study","trial_part":"fixation","trial_type":"html-keyboard-response","trial_index":77,"time_elapsed":342246,"internal_node_id":"0.0-75.0","condition":1,"key_mapping":1,"test_mode":false,"subject_id":"","study_id":"","session_id":""},{"rt":717,"stimulus":"<div class=\"flanker-display\" style=\"gap: 0px;\"><img src=\"materials/cfd/Images/CFD/WM-013/CFD-WM-013-015-A.jpg\" class=\"face-image\" style=\"width: 100px; height: 141px;\" /><img src=\"materials/cfd/Images/CFD/WM-219/CFD-WM-219-008-N.jpg\" class=\"face-image\" style=\"width: 100px; height: 141px;\" /><img src=\"materials/cfd/Images/CFD/WM-013/CFD-WM-013-015-A.jpg\" class=\"face-image\" style=\"width: 100px; height: 141px;\" /></div>","response":"m","phase":"study","block":1,"target_id":"WM-219","target_gender":"M","target_race":"W","target_filename":"materials/cfd/Images/CFD/WM-219/CFD-WM-219-008-N.jpg","flanker_id":"WM-013","flanker_gender":"M","flanker_race":"W","flanker_emotion":"angry","flanker_filename":"materials/cfd/Images/CFD/WM-013/CFD-WM-013-015-A.jpg","trial_type":"html-keyboard-response","trial_index":78,"time_elapsed":345249,"internal_node_id":"0.0-76.0","condition":1,"key_mapping":1,"test_mode":false,"subject_id":"","study_id":"","session_id":"","timed_out":false,"device_pixel_ratio":2,"correct_response":"m","correct":true},{"rt":null,"stimulus":"<span class=\"fixation-cross\">+</span>","response":null,"phase":"study","trial_part":"fixation","trial_type":"html-keyboard-response","trial_index":79,"time_elapsed":347251,"internal_node_id":"0.0-77.0","condition":1,"key_mapping":1,"test_mode":false,"subject_id":"","study_id":"","session_id":""},{"rt":679,"stimulus":"<div class=\"flanker-display\" style=\"gap: 0px;\"><img src=\"materials/cfd/Images/CFD/WF-201/CFD-WF-201-156-N.jpg\" class=\"face-image\" style=\"width: 100px; height: 141px;\" /><img src=\"materials/cfd/Images/CFD/AF-250/CFD-AF-250-200-N.jpg\" class=\"face-image\" style=\"width: 100px; height: 141px;\" /><img src=\"materials/cfd/Images/CFD/WF-201/CFD-WF-201-156-N.jpg\" class=\"face-image\" style=\"width: 100px; height: 141px;\" /></div>","response":"z","phase":"study","block":1,"target_id":"AF-250","target_gender":"F","target_race":"A","target_filename":"materials/cfd/Images/CFD/AF-250/CFD-AF-250-200-N.jpg","flanker_id":"WF-201","flanker_gender":"F","flanker_race":"W","flanker_emotion":"neutral","flanker_filename":"materials/cfd/Images/CFD/WF-201/CFD-WF-201-156-N.jpg","trial_type":"html-keyboard-response","trial_index":80,"time_elapsed":350255,"internal_node_id":"0.0-78.0","condition":1,"key_mapping":1,"test_mode":false,"subject_id":"","study_id":"","session_id":"","timed_out":false,"device_pixel_ratio":2,"correct_response":"z","correct":true},{"rt":null,"stimulus":"<span class=\"fixation-cross\">+</span>","response":null,"phase":"study","trial_part":"fixation","trial_type":"html-keyboard-response","trial_index":81,"time_elapsed":352257,"internal_node_id":"0.0-79.0","condition":1,"key_mapping":1,"test_mode":false,"subject_id":"","study_id":"","session_id":""},{"rt":744,"stimulus":"<div class=\"flanker-display\" style=\"gap: 0px;\"><img src=\"materials/cfd/Images/CFD/WF-026/CFD-WF-026-002-N.jpg\" class=\"face-image\" style=\"width: 100px; height: 141px;\" /><img src=\"materials/cfd/Images/CFD/WF-024/CFD-WF-024-003-N.jpg\" class=\"face-image\" style=\"width: 100px; height: 141px;\" /><img src=\"materials/cfd/Images/CFD/WF-026/CFD-WF-026-002-N.jpg\" class=\"face-image\" style=\"width: 100px; height: 141px;\" /></div>","response":"z","phase":"study","block":1,"target_id":"WF-024","target_gender":"F","target_race":"W","target_filename":"materials/cfd/Images/CFD/WF-024/CFD-WF-024-003-N.jpg","flanker_id":"WF-026","flanker_gender":"F","flanker_race":"W","flanker_emotion":"neutral","flanker_filename":"materials/cfd/Images/CFD/WF-026/CFD-WF-026-002-N.jpg","trial_type":"html-keyboard-response","trial_index":82,"time_elapsed":355260,"internal_node_id":"0.0-80.0","condition":1,"key_mapping":1,"test_mode":false,"subject_id":"","study_id":"","session_id":"","timed_out":false,"device_pixel_ratio":2,"correct_response":"z","correct":true},{"rt":null,"stimulus":"<span class=\"fixation-cross\">+</span>","response":null,"phase":"study","trial_part":"fixation","trial_type":"html-keyboard-response","trial_index":83,"time_elapsed":357262,"internal_node_id":"0.0-81.0","condition":1,"key_mapping":1,"test_mode":false,"subject_id":"","study_id":"","session_id":""},{"rt":940,"stimulus":"<div class=\"flanker-display\" style=\"gap: 0px;\"><img src=\"materials/cfd/Images/CFD/WM-002/CFD-WM-002-017-A.jpg\" class=\"face-image\" style=\"width: 100px; height: 141px;\" /><img src=\"materials/cfd/Images/CFD/WF-216/CFD-WF-216-079-N.jpg\" class=\"face-image\" style=\"width: 100px; height: 141px;\" /><img src=\"materials/cfd/Images/CFD/WM-002/CFD-WM-002-017-A.jpg\" class=\"face-image\" style=\"width: 100px; height: 141px;\" /></div>","response":"z","phase":"study","block":1,"target_id":"WF-216","target_gender":"F","target_race":"W","target_filename":"materials/cfd/Images/CFD/WF-216/CFD-WF-216-079-N.jpg","flanker_id":"WM-002","flanker_gender":"M","flanker_race":"W","flanker_emotion":"angry","flanker_filename":"materials/cfd/Images/CFD/WM-002/CFD-WM-002-017-A.jpg","trial_type":"html-keyboard-response","trial_index":84,"time_elapsed":360265,"internal_node_id":"0.0-82.0","condition":1,"key_mapping":1,"test_mode":false,"subject_id":"","study_id":"","session_id":"","timed_out":false,"device_pixel_ratio":2,"correct_response":"z","correct":true},{"rt":null,"stimulus":"<span class=\"fixation-cross\">+</span>","response":null,"phase":"study","trial_part":"fixation","trial_type":"html-keyboard-response","trial_index":85,"time_elapsed":362267,"internal_node_id":"0.0-83.0","condition":1,"key_mapping":1,"test_mode":false,"subject_id":"","study_id":"","session_id":""},{"rt":803,"stimulus":"<div class=\"flanker-display\" style=\"gap: 0px;\"><img src=\"materials/cfd/Images/CFD/WF-232/CFD-WF-232-161-N.jpg\" class=\"face-image\" style=\"width: 100px; height: 141px;\" /><img src=\"materials/cfd/Images/CFD/WM-036/CFD-WM-036-031-N.jpg\" class=\"face-image\" style=\"width: 100px; height: 141px;\" /><img src=\"materials/cfd/Images/CFD/WF-232/CFD-WF-232-161-N.jpg\" class=\"face-image\" style=\"width: 100px; height: 141px;\" /></div>","response":"m","phase":"study","block":1,"target_id":"WM-036","target_gender":"M","target_race":"W","target_filename":"materials/cfd/Images/CFD/WM-036/CFD-WM-036-031-N.jpg","flanker_id":"WF-232","flanker_gender":"F","flanker_race":"W","flanker_emotion":"neutral","flanker_filename":"materials/cfd/Images/CFD/WF-232/CFD-WF-232-161-N.jpg","trial_type":"html-keyboard-response","trial_index":86,"time_elapsed":365269,"internal_node_id":"0.0-84.0","condition":1,"key_mapping":1,"test_mode":false,"subject_id":"","study_id":"","session_id":"","timed_out":false,"device_pixel_ratio":2,"correct_response":"m","correct":true},{"rt":null,"stimulus":"<span class=\"fixation-cross\">+</span>","response":null,"phase":"study","trial_part":"fixation","trial_type":"html-keyboard-response","trial_index":87,"time_elapsed":367271,"internal_node_id":"0.0-85.0","condition":1,"key_mapping":1,"test_mode":false,"subject_id":"","study_id":"","session_id":""},{"rt":910,"stimulus":"<div class=\"flanker-display\" style=\"gap: 0px;\"><img src=\"materials/cfd/Images/CFD/BM-009/CFD-BM-009-003-HO.jpg\" class=\"face-image\" style=\"width: 100px; height: 141px;\" /><img src=\"materials/cfd/Images/CFD/LF-227/CFD-LF-227-054-N.jpg\" class=\"face-image\" style=\"width: 100px; height: 141px;\" /><img src=\"materials/cfd/Images/CFD/BM-009/CFD-BM-009-003-HO.jpg\" class=\"face-image\" style=\"width: 100px; height: 141px;\" /></div>","response":"z","phase":"study","block":1,"target_id":"LF-227","target_gender":"F","target_race":"L","target_filename":"materials/cfd/Images/CFD/LF-227/CFD-LF-227-054-N.jpg","flanker_id":"BM-009","flanker_gender":"M","flanker_race":"B","flanker_emotion":"happy","flanker_filename":"materials/cfd/Images/CFD/BM-009/CFD-BM-009-003-HO.jpg","trial_type":"html-keyboard-response","trial_index":88,"time_elapsed":370274,"internal_node_id":"0.0-86.0","condition":1,"key_mapping":1,"test_mode":false,"subject_id":"","study_id":"","session_id":"","timed_out":false,"device_pixel_ratio":2,"correct_response":"z","correct":true},{"rt":null,"stimulus":"<span class=\"fixation-cross\">+</span>","response":null,"phase":"study","trial_part":"fixation","trial_type":"html-keyboard-response","trial_index":89,"time_elapsed":372277,"internal_node_id":"0.0-87.0","condition":1,"key_mapping":1,"test_mode":false,"subject_id":"","study_id":"","session_id":""},{"rt":2332,"stimulus":"<div class=\"flanker-display\" style=\"gap: 0px;\"><img src=\"materials/cfd/Images/CFD/BM-032/CFD-BM-032-015-A.jpg\" class=\"face-image\" style=\"width: 100px; height: 141px;\" /><img src=\"materials/cfd/Images/CFD/BF-029/CFD-BF-029-031-N.jpg\" class=\"face-image\" style=\"width: 100px; height: 141px;\" /><img src=\"materials/cfd/Images/CFD/BM-032/CFD-BM-032-015-A.jpg\" class=\"face-image\" style=\"width: 100px; height: 141px;\" /></div>","response":"m","phase":"study","block":1,"target_id":"BF-029","target_gender":"F","target_race":"B","target_filename":"materials/cfd/Images/CFD/BF-029/CFD-BF-029-031-N.jpg","flanker_id":"BM-032","flanker_gender":"M","flanker_race":"B","flanker_emotion":"angry","flanker_filename":"materials/cfd/Images/CFD/BM-032/CFD-BM-032-015-A.jpg","trial_type":"html-keyboard-response","trial_index":90,"time_elapsed":375279,"internal_node_id":"0.0-88.0","condition":1,"key_mapping":1,"test_mode":false,"subject_id":"","study_id":"","session_id":"","timed_out":false,"device_pixel_ratio":2,"correct_response":"z","correct":false},{"rt":null,"stimulus":"<span class=\"fixation-cross\">+</span>","response":null,"phase":"study","trial_part":"fixation","trial_type":"html-keyboard-response","trial_index":91,"time_elapsed":377282,"internal_node_id":"0.0-89.0","condition":1,"key_mapping":1,"test_mode":false,"subject_id":"","study_id":"","session_id":""},{"rt":1262,"stimulus":"<div class=\"flanker-display\" style=\"gap: 0px;\"><img src=\"materials/cfd/Images/CFD/WF-033/CFD-WF-033-002-N.jpg\" class=\"face-image\" style=\"width: 100px; height: 141px;\" /><img src=\"materials/cfd/Images/CFD/LM-230/CFD-LM-230-202-N.jpg\" class=\"face-image\" style=\"width: 100px; height: 141px;\" /><img src=\"materials/cfd/Images/CFD/WF-033/CFD-WF-033-002-N.jpg\" class=\"face-image\" style=\"width: 100px; height: 141px;\" /></div>","response":"m","phase":"study","block":1,"target_id":"LM-230","target_gender":"M","target_race":"L","target_filename":"materials/cfd/Images/CFD/LM-230/CFD-LM-230-202-N.jpg","flanker_id":"WF-033","flanker_gender":"F","flanker_race":"W","flanker_emotion":"neutral","flanker_filename":"materials/cfd/Images/CFD/WF-033/CFD-WF-033-002-N.jpg","trial_type":"html-keyboard-response","trial_index":92,"time_elapsed":380285,"internal_node_id":"0.0-90.0","condition":1,"key_mapping":1,"test_mode":false,"subject_id":"","study_id":"","session_id":"","timed_out":false,"device_pixel_ratio":2,"correct_response":"m","correct":true},{"rt":null,"stimulus":"<span class=\"fixation-cross\">+</span>","response":null,"phase":"study","trial_part":"fixation","trial_type":"html-keyboard-response","trial_index":93,"time_elapsed":382288,"internal_node_id":"0.0-91.0","condition":1,"key_mapping":1,"test_mode":false,"subject_id":"","study_id":"","session_id":""},{"rt":888,"stimulus":"<div class=\"flanker-display\" style=\"gap: 0px;\"><img src=\"materials/cfd/Images/CFD/BM-036/CFD-BM-036-037-A.jpg\" class=\"face-image\" style=\"width: 100px; height: 141px;\" /><img src=\"materials/cfd/Images/CFD/WF-249/CFD-WF-249-126-N.jpg\" class=\"face-image\" style=\"width: 100px; height: 141px;\" /><img src=\"materials/cfd/Images/CFD/BM-036/CFD-BM-036-037-A.jpg\" class=\"face-image\" style=\"width: 100px; height: 141px;\" /></div>","response":"z","phase":"study","block":1,"target_id":"WF-249","target_gender":"F","target_race":"W","target_filename":"materials/cfd/Images/CFD/WF-249/CFD-WF-249-126-N.jpg","flanker_id":"BM-036","flanker_gender":"M","flanker_race":"B","flanker_emotion":"angry","flanker_filename":"materials/cfd/Images/CFD/BM-036/CFD-BM-036-037-A.jpg","trial_type":"html-keyboard-response","trial_index":94,"time_elapsed":385291,"internal_node_id":"0.0-92.0","condition":1,"key_mapping":1,"test_mode":false,"subject_id":"","study_id":"","session_id":"","timed_out":false,"device_pixel_ratio":2,"correct_response":"z","correct":true},{"rt":null,"stimulus":"<span class=\"fixation-cross\">+</span>","response":null,"phase":"study","trial_part":"fixation","trial_type":"html-keyboard-response","trial_index":95,"time_elapsed":387293,"internal_node_id":"0.0-93.0","condition":1,"key_mapping":1,"test_mode":false,"subject_id":"","study_id":"","session_id":""},{"rt":2359,"stimulus":"<div class=\"flanker-display\" style=\"gap: 0px;\"><img src=\"materials/cfd/Images/CFD/WF-030/CFD-WF-030-033-A.jpg\" class=\"face-image\" style=\"width: 100px; height: 141px;\" /><img src=\"materials/cfd/Images/CFD/AF-234/CFD-AF-234-208-N.jpg\" class=\"face-image\" style=\"width: 100px; height: 141px;\" /><img src=\"materials/cfd/Images/CFD/WF-030/CFD-WF-030-033-A.jpg\" class=\"face-image\" style=\"width: 100px; height: 141px;\" /></div>","response":"z","phase":"study","block":1,"target_id":"AF-234","target_gender":"F","target_race":"A","target_filename":"materials/cfd/Images/CFD/AF-234/CFD-AF-234-208-N.jpg","flanker_id":"WF-030","flanker_gender":"F","flanker_race":"W","flanker_emotion":"angry","flanker_filename":"materials/cfd/Images/CFD/WF-030/CFD-WF-030-033-A.jpg","trial_type":"html-keyboard-response","trial_index":96,"time_elapsed":390296,"internal_node_id":"0.0-94.0","condition":1,"key_mapping":1,"test_mode":false,"subject_id":"","study_id":"","session_id":"","timed_out":false,"device_pixel_ratio":2,"correct_response":"z","correct":true},{"rt":null,"stimulus":"<span class=\"fixation-cross\">+</span>","response":null,"phase":"study","trial_part":"fixation","trial_type":"html-keyboard-response","trial_index":97,"time_elapsed":392298,"internal_node_id":"0.0-95.0","condition":1,"key_mapping":1,"test_mode":false,"subject_id":"","study_id":"","session_id":""},{"rt":1093,"stimulus":"<div class=\"flanker-display\" style=\"gap: 0px;\"><img src=\"materials/cfd/Images/CFD/WF-037/CFD-WF-037-016-A.jpg\" class=\"face-image\" style=\"width: 100px; height: 141px;\" /><img src=\"materials/cfd/Images/CFD/BM-215/CFD-BM-215-155-N.jpg\" class=\"face-image\" style=\"width: 100px; height: 141px;\" /><img src=\"materials/cfd/Images/CFD/WF-037/CFD-WF-037-016-A.jpg\" class=\"face-image\" style=\"width: 100px; height: 141px;\" /></div>","response":"m","phase":"study","block":1,"target_id":"BM-215","target_gender":"M","target_race":"B","target_filename":"materials/cfd/Images/CFD/BM-215/CFD-BM-215-155-N.jpg","flanker_id":"WF-037","flanker_gender":"F","flanker_race":"W","flanker_emotion":"angry","flanker_filename":"materials/cfd/Images/CFD/WF-037/CFD-WF-037-016-A.jpg","trial_type":"html-keyboard-response","trial_index":98,"time_elapsed":395302,"internal_node_id":"0.0-96.0","condition":1,"key_mapping":1,"test_mode":false,"subject_id":"","study_id":"","session_id":"","timed_out":false,"device_pixel_ratio":2,"correct_response":"m","correct":true},{"rt":null,"stimulus":"<span class=\"fixation-cross\">+</span>","response":null,"phase":"study","trial_part":"fixation","trial_type":"html-keyboard-response","trial_index":99,"time_elapsed":397304,"internal_node_id":"0.0-97.0","condition":1,"key_mapping":1,"test_mode":false,"subject_id":"","study_id":"","session_id":""},{"rt":1178,"stimulus":"<div class=\"flanker-display\" style=\"gap: 0px;\"><img src=\"materials/cfd/Images/CFD/BF-050/CFD-BF-050-004-HO.jpg\" class=\"face-image\" style=\"width: 100px; height: 141px;\" /><img src=\"materials/cfd/Images/CFD/WF-222/CFD-WF-222-092-N.jpg\" class=\"face-image\" style=\"width: 100px; height: 141px;\" /><img src=\"materials/cfd/Images/CFD/BF-050/CFD-BF-050-004-HO.jpg\" class=\"face-image\" style=\"width: 100px; height: 141px;\" /></div>","response":"z","phase":"study","block":1,"target_id":"WF-222","target_gender":"F","target_race":"W","target_filename":"materials/cfd/Images/CFD/WF-222/CFD-WF-222-092-N.jpg","flanker_id":"BF-050","flanker_gender":"F","flanker_race":"B","flanker_emotion":"happy","flanker_filename":"materials/cfd/Images/CFD/BF-050/CFD-BF-050-004-HO.jpg","trial_type":"html-keyboard-response","trial_index":100,"time_elapsed":400308,"internal_node_id":"0.0-98.0","condition":1,"key_mapping":1,"test_mode":false,"subject_id":"","study_id":"","session_id":"","timed_out":false,"device_pixel_ratio":2,"correct_response":"z","correct":true},{"rt":null,"stimulus":"<span class=\"fixation-cross\">+</span>","response":null,"phase":"study","trial_part":"fixation","trial_type":"html-keyboard-response","trial_index":101,"time_elapsed":402310,"internal_node_id":"0.0-99.0","condition":1,"key_mapping":1,"test_mode":false,"subject_id":"","study_id":"","session_id":""},{"rt":769,"stimulus":"<div class=\"flanker-display\" style=\"gap: 0px;\"><img src=\"materials/cfd/Images/CFD/WM-006/CFD-WM-006-010-HO.jpg\" class=\"face-image\" style=\"width: 100px; height: 141px;\" /><img src=\"materials/cfd/Images/CFD/LM-240/CFD-LM-240-013-N.jpg\" class=\"face-image\" style=\"width: 100px; height: 141px;\" /><img src=\"materials/cfd/Images/CFD/WM-006/CFD-WM-006-010-HO.jpg\" class=\"face-image\" style=\"width: 100px; height: 141px;\" /></div>","response":"m","phase":"study","block":1,"target_id":"LM-240","target_gender":"M","target_race":"L","target_filename":"materials/cfd/Images/CFD/LM-240/CFD-LM-240-013-N.jpg","flanker_id":"WM-006","flanker_gender":"M","flanker_race":"W","flanker_emotion":"happy","flanker_filename":"materials/cfd/Images/CFD/WM-006/CFD-WM-006-010-HO.jpg","trial_type":"html-keyboard-response","trial_index":102,"time_elapsed":405313,"internal_node_id":"0.0-100.0","condition":1,"key_mapping":1,"test_mode":false,"subject_id":"","study_id":"","session_id":"","timed_out":false,"device_pixel_ratio":2,"correct_response":"m","correct":true},{"rt":null,"stimulus":"<span class=\"fixation-cross\">+</span>","response":null,"phase":"study","trial_part":"fixation","trial_type":"html-keyboard-response","trial_index":103,"time_elapsed":407315,"internal_node_id":"0.0-101.0","condition":1,"key_mapping":1,"test_mode":false,"subject_id":"","study_id":"","session_id":""},{"rt":1076,"stimulus":"<div class=\"flanker-display\" style=\"gap: 0px;\"><img src=\"materials/cfd/Images/CFD/WF-007/CFD-WF-007-001-N.jpg\" class=\"face-image\" style=\"width: 100px; height: 141px;\" /><img src=\"materials/cfd/Images/CFD/BF-243/CFD-BF-243-164-N.jpg\" class=\"face-image\" style=\"width: 100px; height: 141px;\" /><img src=\"materials/cfd/Images/CFD/WF-007/CFD-WF-007-001-N.jpg\" class=\"face-image\" style=\"width: 100px; height: 141px;\" /></div>","response":"z","phase":"study","block":1,"target_id":"BF-243","target_gender":"F","target_race":"B","target_filename":"materials/cfd/Images/CFD/BF-243/CFD-BF-243-164-N.jpg","flanker_id":"WF-007","flanker_gender":"F","flanker_race":"W","flanker_emotion":"neutral","flanker_filename":"materials/cfd/Images/CFD/WF-007/CFD-WF-007-001-N.jpg","trial_type":"html-keyboard-response","trial_index":104,"time_elapsed":410318,"internal_node_id":"0.0-102.0","condition":1,"key_mapping":1,"test_mode":false,"subject_id":"","study_id":"","session_id":"","timed_out":false,"device_pixel_ratio":2,"correct_response":"z","correct":true},{"rt":null,"stimulus":"<span class=\"fixation-cross\">+</span>","response":null,"phase":"study","trial_part":"fixation","trial_type":"html-keyboard-response","trial_index":105,"time_elapsed":412320,"internal_node_id":"0.0-103.0","condition":1,"key_mapping":1,"test_mode":false,"subject_id":"","study_id":"","session_id":""},{"rt":1210,"stimulus":"<div class=\"flanker-display\" style=\"gap: 0px;\"><img src=\"materials/cfd/Images/CFD/WF-226/CFD-WF-226-095-N.jpg\" class=\"face-image\" style=\"width: 100px; height: 141px;\" /><img src=\"materials/cfd/Images/CFD/BF-005/CFD-BF-005-001-N.jpg\" class=\"face-image\" style=\"width: 100px; height: 141px;\" /><img src=\"materials/cfd/Images/CFD/WF-226/CFD-WF-226-095-N.jpg\" class=\"face-image\" style=\"width: 100px; height: 141px;\" /></div>","response":"z","phase":"study","block":1,"target_id":"BF-005","target_gender":"F","target_race":"B","target_filename":"materials/cfd/Images/CFD/BF-005/CFD-BF-005-001-N.jpg","flanker_id":"WF-226","flanker_gender":"F","flanker_race":"W","flanker_emotion":"neutral","flanker_filename":"materials/cfd/Images/CFD/WF-226/CFD-WF-226-095-N.jpg","trial_type":"html-keyboard-response","trial_index":106,"time_elapsed":415323,"internal_node_id":"0.0-104.0","condition":1,"key_mapping":1,"test_mode":false,"subject_id":"","study_id":"","session_id":"","timed_out":false,"device_pixel_ratio":2,"correct_response":"z","correct":true},{"rt":null,"stimulus":"<span class=\"fixation-cross\">+</span>","response":null,"phase":"study","trial_part":"fixation","trial_type":"html-keyboard-response","trial_index":107,"time_elapsed":417326,"internal_node_id":"0.0-105.0","condition":1,"key_mapping":1,"test_mode":false,"subject_id":"","study_id":"","session_id":""},{"rt":1115,"stimulus":"<div class=\"flanker-display\" style=\"gap: 0px;\"><img src=\"materials/cfd/Images/CFD/BM-243/CFD-BM-243-218-N.jpg\" class=\"face-image\" style=\"width: 100px; height: 141px;\" /><img src=\"materials/cfd/Images/CFD/BF-219/CFD-BF-219-137-N.jpg\" class=\"face-image\" style=\"width: 100px; height: 141px;\" /><img src=\"materials/cfd/Images/CFD/BM-243/CFD-BM-243-218-N.jpg\" class=\"face-image\" style=\"width: 100px; height: 141px;\" /></div>","response":"z","phase":"study","block":1,"target_id":"BF-219","target_gender":"F","target_race":"B","target_filename":"materials/cfd/Images/CFD/BF-219/CFD-BF-219-137-N.jpg","flanker_id":"BM-243","flanker_gender":"M","flanker_race":"B","flanker_emotion":"neutral","flanker_filename":"materials/cfd/Images/CFD/BM-243/CFD-BM-243-218-N.jpg","trial_type":"html-keyboard-response","trial_index":108,"time_elapsed":420328,"internal_node_id":"0.0-106.0","condition":1,"key_mapping":1,"test_mode":false,"subject_id":"","study_id":"","session_id":"","timed_out":false,"device_pixel_ratio":2,"correct_response":"z","correct":true},{"rt":null,"stimulus":"<span class=\"fixation-cross\">+</span>","response":null,"phase":"study","trial_part":"fixation","trial_type":"html-keyboard-response","trial_index":109,"time_elapsed":422330,"internal_node_id":"0.0-107.0","condition":1,"key_mapping":1,"test_mode":false,"subject_id":"","study_id":"","session_id":""},{"rt":831,"stimulus":"<div class=\"flanker-display\" style=\"gap: 0px;\"><img src=\"materials/cfd/Images/CFD/WM-034/CFD-WM-034-035-HO.jpg\" class=\"face-image\" style=\"width: 100px; height: 141px;\" /><img src=\"materials/cfd/Images/CFD/WM-204/CFD-WM-204-031-N.jpg\" class=\"face-image\" style=\"width: 100px; height: 141px;\" /><img src=\"materials/cfd/Images/CFD/WM-034/CFD-WM-034-035-HO.jpg\" class=\"face-image\" style=\"width: 100px; height: 141px;\" /></div>","response":"m","phase":"study","block":1,"target_id":"WM-204","target_gender":"M","target_race":"W","target_filename":"materials/cfd/Images/CFD/WM-204/CFD-WM-204-031-N.jpg","flanker_id":"WM-034","flanker_gender":"M","flanker_race":"W","flanker_emotion":"happy","flanker_filename":"materials/cfd/Images/CFD/WM-034/CFD-WM-034-035-HO.jpg","trial_type":"html-keyboard-response","trial_index":110,"time_elapsed":425334,"internal_node_id":"0.0-108.0","condition":1,"key_mapping":1,"test_mode":false,"subject_id":"","study_id":"","session_id":"","timed_out":false,"device_pixel_ratio":2,"correct_response":"m","correct":true},{"rt":null,"stimulus":"<span class=\"fixation-cross\">+</span>","response":null,"phase":"study","trial_part":"fixation","trial_type":"html-keyboard-response","trial_index":111,"time_elapsed":427336,"internal_node_id":"0.0-109.0","condition":1,"key_mapping":1,"test_mode":false,"subject_id":"","study_id":"","session_id":""},{"rt":1817,"stimulus":"<div class=\"flanker-display\" style=\"gap: 0px;\"><img src=\"materials/cfd/Images/CFD/BF-038/CFD-BF-038-029-A.jpg\" class=\"face-image\" style=\"width: 100px; height: 141px;\" /><img src=\"materials/cfd/Images/CFD/BM-023/CFD-BM-023-029-N.jpg\" class=\"face-image\" style=\"width: 100px; height: 141px;\" /><img src=\"materials/cfd/Images/CFD/BF-038/CFD-BF-038-029-A.jpg\" class=\"face-image\" style=\"width: 100px; height: 141px;\" /></div>","response":"m","phase":"study","block":1,"target_id":"BM-023","target_gender":"M","target_race":"B","target_filename":"materials/cfd/Images/CFD/BM-023/CFD-BM-023-029-N.jpg","flanker_id":"BF-038","flanker_gender":"F","flanker_race":"B","flanker_emotion":"angry","flanker_filename":"materials/cfd/Images/CFD/BF-038/CFD-BF-038-029-A.jpg","trial_type":"html-keyboard-response","trial_index":112,"time_elapsed":430340,"internal_node_id":"0.0-110.0","condition":1,"key_mapping":1,"test_mode":false,"subject_id":"","study_id":"","session_id":"","timed_out":false,"device_pixel_ratio":2,"correct_response":"m","correct":true},{"rt":null,"stimulus":"<span class=\"fixation-cross\">+</span>","response":null,"phase":"study","trial_part":"fixation","trial_type":"html-keyboard-response","trial_index":113,"time_elapsed":432343,"internal_node_id":"0.0-111.0","condition":1,"key_mapping":1,"test_mode":false,"subject_id":"","study_id":"","session_id":""},{"rt":766,"stimulus":"<div class=\"flanker-display\" style=\"gap: 0px;\"><img src=\"materials/cfd/Images/CFD/BM-228/CFD-BM-228-145-N.jpg\" class=\"face-image\" style=\"width: 100px; height: 141px;\" /><img src=\"materials/cfd/Images/CFD/BM-045/CFD-BM-045-004-N.jpg\" class=\"face-image\" style=\"width: 100px; height: 141px;\" /><img src=\"materials/cfd/Images/CFD/BM-228/CFD-BM-228-145-N.jpg\" class=\"face-image\" style=\"width: 100px; height: 141px;\" /></div>","response":"m","phase":"study","block":1,"target_id":"BM-045","target_gender":"M","target_race":"B","target_filename":"materials/cfd/Images/CFD/BM-045/CFD-BM-045-004-N.jpg","flanker_id":"BM-228","flanker_gender":"M","flanker_race":"B","flanker_emotion":"neutral","flanker_filename":"materials/cfd/Images/CFD/BM-228/CFD-BM-228-145-N.jpg","trial_type":"html-keyboard-response","trial_index":114,"time_elapsed":435346,"internal_node_id":"0.0-112.0","condition":1,"key_mapping":1,"test_mode":false,"subject_id":"","study_id":"","session_id":"","timed_out":false,"device_pixel_ratio":2,"correct_response":"m","correct":true},{"rt":null,"stimulus":"<span class=\"fixation-cross\">+</span>","response":null,"phase":"study","trial_part":"fixation","trial_type":"html-keyboard-response","trial_index":115,"time_elapsed":437348,"internal_node_id":"0.0-113.0","condition":1,"key_mapping":1,"test_mode":false,"subject_id":"","study_id":"","session_id":""},{"rt":1140,"stimulus":"<div class=\"flanker-display\" style=\"gap: 0px;\"><img src=\"materials/cfd/Images/CFD/WM-022/CFD-WM-022-008-A.jpg\" class=\"face-image\" style=\"width: 100px; height: 141px;\" /><img src=\"materials/cfd/Images/CFD/WM-249/CFD-WM-249-239-N.jpg\" class=\"face-image\" style=\"width: 100px; height: 141px;\" /><img src=\"materials/cfd/Images/CFD/WM-022/CFD-WM-022-008-A.jpg\" class=\"face-image\" style=\"width: 100px; height: 141px;\" /></div>","response":"m","phase":"study","block":1,"target_id":"WM-249","target_gender":"M","target_race":"W","target_filename":"materials/cfd/Images/CFD/WM-249/CFD-WM-249-239-N.jpg","flanker_id":"WM-022","flanker_gender":"M","flanker_race":"W","flanker_emotion":"angry","flanker_filename":"materials/cfd/Images/CFD/WM-022/CFD-WM-022-008-A.jpg","trial_type":"html-keyboard-response","trial_index":116,"time_elapsed":440351,"internal_node_id":"0.0-114.0","condition":1,"key_mapping":1,"test_mode":false,"subject_id":"","study_id":"","session_id":"","timed_out":false,"device_pixel_ratio":2,"correct_response":"m","correct":true},{"rt":null,"stimulus":"<span class=\"fixation-cross\">+</span>","response":null,"phase":"study","trial_part":"fixation","trial_type":"html-keyboard-response","trial_index":117,"time_elapsed":442354,"internal_node_id":"0.0-115.0","condition":1,"key_mapping":1,"test_mode":false,"subject_id":"","study_id":"","session_id":""},{"rt":923,"stimulus":"<div class=\"flanker-display\" style=\"gap: 0px;\"><img src=\"materials/cfd/Images/CFD/BM-001/CFD-BM-001-011-HO.jpg\" class=\"face-image\" style=\"width: 100px; height: 141px;\" /><img src=\"materials/cfd/Images/CFD/WM-220/CFD-WM-220-068-N.jpg\" class=\"face-image\" style=\"width: 100px; height: 141px;\" /><img src=\"materials/cfd/Images/CFD/BM-001/CFD-BM-001-011-HO.jpg\" class=\"face-image\" style=\"width: 100px; height: 141px;\" /></div>","response":"m","phase":"study","block":1,"target_id":"WM-220","target_gender":"M","target_race":"W","target_filename":"materials/cfd/Images/CFD/WM-220/CFD-WM-220-068-N.jpg","flanker_id":"BM-001","flanker_gender":"M","flanker_race":"B","flanker_emotion":"happy","flanker_filename":"materials/cfd/Images/CFD/BM-001/CFD-BM-001-011-HO.jpg","trial_type":"html-keyboard-response","trial_index":118,"time_elapsed":445357,"internal_node_id":"0.0-116.0","condition":1,"key_mapping":1,"test_mode":false,"subject_id":"","study_id":"","session_id":"","timed_out":false,"device_pixel_ratio":2,"correct_response":"m","correct":true},{"rt":null,"stimulus":"<span class=\"fixation-cross\">+</span>","response":null,"phase":"study","trial_part":"fixation","trial_type":"html-keyboard-response","trial_index":119,"time_elapsed":447360,"internal_node_id":"0.0-117.0","condition":1,"key_mapping":1,"test_mode":false,"subject_id":"","study_id":"","session_id":""},{"rt":841,"stimulus":"<div class=\"flanker-display\" style=\"gap: 0px;\"><img src=\"materials/cfd/Images/CFD/BM-028/CFD-BM-028-028-HO.jpg\" class=\"face-image\" style=\"width: 100px; height: 141px;\" /><img src=\"materials/cfd/Images/CFD/AF-247/CFD-AF-247-278-N.jpg\" class=\"face-image\" style=\"width: 100px; height: 141px;\" /><img src=\"materials/cfd/Images/CFD/BM-028/CFD-BM-028-028-HO.jpg\" class=\"face-image\" style=\"width: 100px; height: 141px;\" /></div>","response":"z","phase":"study","block":1,"target_id":"AF-247","target_gender":"F","target_race":"A","target_filename":"materials/cfd/Images/CFD/AF-247/CFD-AF-247-278-N.jpg","flanker_id":"BM-028","flanker_gender":"M","flanker_race":"B","flanker_emotion":"happy","flanker_filename":"materials/cfd/Images/CFD/BM-028/CFD-BM-028-028-HO.jpg","trial_type":"html-keyboard-response","trial_index":120,"time_elapsed":450363,"internal_node_id":"0.0-118.0","condition":1,"key_mapping":1,"test_mode":false,"subject_id":"","study_id":"","session_id":"","timed_out":false,"device_pixel_ratio":2,"correct_response":"z","correct":true},{"rt":null,"stimulus":"<span class=\"fixation-cross\">+</span>","response":null,"phase":"study","trial_part":"fixation","trial_type":"html-keyboard-response","trial_index":121,"time_elapsed":452365,"internal_node_id":"0.0-119.0","condition":1,"key_mapping":1,"test_mode":false,"subject_id":"","study_id":"","session_id":""},{"rt":1131,"stimulus":"<div class=\"flanker-display\" style=\"gap: 0px;\"><img src=\"materials/cfd/Images/CFD/WF-001/CFD-WF-001-016-A.jpg\" class=\"face-image\" style=\"width: 100px; height: 141px;\" /><img src=\"materials/cfd/Images/CFD/BM-241/CFD-BM-241-235-N.jpg\" class=\"face-image\" style=\"width: 100px; height: 141px;\" /><img src=\"materials/cfd/Images/CFD/WF-001/CFD-WF-001-016-A.jpg\" class=\"face-image\" style=\"width: 100px; height: 141px;\" /></div>","response":"m","phase":"study","block":1,"target_id":"BM-241","target_gender":"M","target_race":"B","target_filename":"materials/cfd/Images/CFD/BM-241/CFD-BM-241-235-N.jpg","flanker_id":"WF-001","flanker_gender":"F","flanker_race":"W","flanker_emotion":"angry","flanker_filename":"materials/cfd/Images/CFD/WF-001/CFD-WF-001-016-A.jpg","trial_type":"html-keyboard-response","trial_index":122,"time_elapsed":455368,"internal_node_id":"0.0-120.0","condition":1,"key_mapping":1,"test_mode":false,"subject_id":"","study_id":"","session_id":"","timed_out":false,"device_pixel_ratio":2,"correct_response":"m","correct":true},{"rt":null,"stimulus":"<span class=\"fixation-cross\">+</span>","response":null,"phase":"study","trial_part":"fixation","trial_type":"html-keyboard-response","trial_index":123,"time_elapsed":457371,"internal_node_id":"0.0-121.0","condition":1,"key_mapping":1,"test_mode":false,"subject_id":"","study_id":"","session_id":""},{"rt":936,"stimulus":"<div class=\"flanker-display\" style=\"gap: 0px;\"><img src=\"materials/cfd/Images/CFD/WM-038/CFD-WM-038-011-A.jpg\" class=\"face-image\" style=\"width: 100px; height: 141px;\" /><img src=\"materials/cfd/Images/CFD/BF-043/CFD-BF-043-003-N.jpg\" class=\"face-image\" style=\"width: 100px; height: 141px;\" /><img src=\"materials/cfd/Images/CFD/WM-038/CFD-WM-038-011-A.jpg\" class=\"face-image\" style=\"width: 100px; height: 141px;\" /></div>","response":"z","phase":"study","block":1,"target_id":"BF-043","target_gender":"F","target_race":"B","target_filename":"materials/cfd/Images/CFD/BF-043/CFD-BF-043-003-N.jpg","flanker_id":"WM-038","flanker_gender":"M","flanker_race":"W","flanker_emotion":"angry","flanker_filename":"materials/cfd/Images/CFD/WM-038/CFD-WM-038-011-A.jpg","trial_type":"html-keyboard-response","trial_index":124,"time_elapsed":460374,"internal_node_id":"0.0-122.0","condition":1,"key_mapping":1,"test_mode":false,"subject_id":"","study_id":"","session_id":"","timed_out":false,"device_pixel_ratio":2,"correct_response":"z","correct":true},{"rt":null,"stimulus":"<span class=\"fixation-cross\">+</span>","response":null,"phase":"study","trial_part":"fixation","trial_type":"html-keyboard-response","trial_index":125,"time_elapsed":462377,"internal_node_id":"0.0-123.0","condition":1,"key_mapping":1,"test_mode":false,"subject_id":"","study_id":"","session_id":""},{"rt":622,"stimulus":"<div class=\"flanker-display\" style=\"gap: 0px;\"><img src=\"materials/cfd/Images/CFD/WM-224/CFD-WM-224-197-N.jpg\" class=\"face-image\" style=\"width: 100px; height: 141px;\" /><img src=\"materials/cfd/Images/CFD/BF-023/CFD-BF-023-010-N.jpg\" class=\"face-image\" style=\"width: 100px; height: 141px;\" /><img src=\"materials/cfd/Images/CFD/WM-224/CFD-WM-224-197-N.jpg\" class=\"face-image\" style=\"width: 100px; height: 141px;\" /></div>","response":"z","phase":"study","block":1,"target_id":"BF-023","target_gender":"F","target_race":"B","target_filename":"materials/cfd/Images/CFD/BF-023/CFD-BF-023-010-N.jpg","flanker_id":"WM-224","flanker_gender":"M","flanker_race":"W","flanker_emotion":"neutral","flanker_filename":"materials/cfd/Images/CFD/WM-224/CFD-WM-224-197-N.jpg","trial_type":"html-keyboard-response","trial_index":126,"time_elapsed":465381,"internal_node_id":"0.0-124.0","condition":1,"key_mapping":1,"test_mode":false,"subject_id":"","study_id":"","session_id":"","timed_out":false,"device_pixel_ratio":2,"correct_response":"z","correct":true},{"rt":null,"stimulus":"<span class=\"fixation-cross\">+</span>","response":null,"phase":"study","trial_part":"fixation","trial_type":"html-keyboard-response","trial_index":127,"time_elapsed":467383,"internal_node_id":"0.0-125.0","condition":1,"key_mapping":1,"test_mode":false,"subject_id":"","study_id":"","session_id":""},{"rt":1000,"stimulus":"<div class=\"flanker-display\" style=\"gap: 0px;\"><img src=\"materials/cfd/Images/CFD/BF-048/CFD-BF-048-038-A.jpg\" class=\"face-image\" style=\"width: 100px; height: 141px;\" /><img src=\"materials/cfd/Images/CFD/BF-216/CFD-BF-216-132-N.jpg\" class=\"face-image\" style=\"width: 100px; height: 141px;\" /><img src=\"materials/cfd/Images/CFD/BF-048/CFD-BF-048-038-A.jpg\" class=\"face-image\" style=\"width: 100px; height: 141px;\" /></div>","response":"z","phase":"study","block":1,"target_id":"BF-216","target_gender":"F","target_race":"B","target_filename":"materials/cfd/Images/CFD/BF-216/CFD-BF-216-132-N.jpg","flanker_id":"BF-048","flanker_gender":"F","flanker_race":"B","flanker_emotion":"angry","flanker_filename":"materials/cfd/Images/CFD/BF-048/CFD-BF-048-038-A.jpg","trial_type":"html-keyboard-response","trial_index":128,"time_elapsed":470387,"internal_node_id":"0.0-126.0","condition":1,"key_mapping":1,"test_mode":false,"subject_id":"","study_id":"","session_id":"","timed_out":false,"device_pixel_ratio":2,"correct_response":"z","correct":true},{"rt":null,"stimulus":"<span class=\"fixation-cross\">+</span>","response":null,"phase":"study","trial_part":"fixation","trial_type":"html-keyboard-response","trial_index":129,"time_elapsed":472390,"internal_node_id":"0.0-127.0","condition":1,"key_mapping":1,"test_mode":false,"subject_id":"","study_id":"","session_id":""},{"rt":1124,"stimulus":"<div class=\"flanker-display\" style=\"gap: 0px;\"><img src=\"materials/cfd/Images/CFD/BM-239/CFD-BM-239-136-N.jpg\" class=\"face-image\" style=\"width: 100px; height: 141px;\" /><img src=\"materials/cfd/Images/CFD/WM-001/CFD-WM-001-014-N.jpg\" class=\"face-image\" style=\"width: 100px; height: 141px;\" /><img src=\"materials/cfd/Images/CFD/BM-239/CFD-BM-239-136-N.jpg\" class=\"face-image\" style=\"width: 100px; height: 141px;\" /></div>","response":"m","phase":"study","block":1,"target_id":"WM-001","target_gender":"M","target_race":"W","target_filename":"materials/cfd/Images/CFD/WM-001/CFD-WM-001-014-N.jpg","flanker_id":"BM-239","flanker_gender":"M","flanker_race":"B","flanker_emotion":"neutral","flanker_filename":"materials/cfd/Images/CFD/BM-239/CFD-BM-239-136-N.jpg","trial_type":"html-keyboard-response","trial_index":130,"time_elapsed":475393,"internal_node_id":"0.0-128.0","condition":1,"key_mapping":1,"test_mode":false,"subject_id":"","study_id":"","session_id":"","timed_out":false,"device_pixel_ratio":2,"correct_response":"m","correct":true},{"rt":null,"stimulus":"<span class=\"fixation-cross\">+</span>","response":null,"phase":"study","trial_part":"fixation","trial_type":"html-keyboard-response","trial_index":131,"time_elapsed":477395,"internal_node_id":"0.0-129.0","condition":1,"key_mapping":1,"test_mode":false,"subject_id":"","study_id":"","session_id":""},{"rt":695,"stimulus":"<div class=\"flanker-display\" style=\"gap: 0px;\"><img src=\"materials/cfd/Images/CFD/WF-025/CFD-WF-025-006-HO.jpg\" class=\"face-image\" style=\"width: 100px; height: 141px;\" /><img src=\"materials/cfd/Images/CFD/LM-236/CFD-LM-236-163-N.jpg\" class=\"face-image\" style=\"width: 100px; height: 141px;\" /><img src=\"materials/cfd/Images/CFD/WF-025/CFD-WF-025-006-HO.jpg\" class=\"face-image\" style=\"width: 100px; height: 141px;\" /></div>","response":"m","phase":"study","block":1,"target_id":"LM-236","target_gender":"M","target_race":"L","target_filename":"materials/cfd/Images/CFD/LM-236/CFD-LM-236-163-N.jpg","flanker_id":"WF-025","flanker_gender":"F","flanker_race":"W","flanker_emotion":"happy","flanker_filename":"materials/cfd/Images/CFD/WF-025/CFD-WF-025-006-HO.jpg","trial_type":"html-keyboard-response","trial_index":132,"time_elapsed":480398,"internal_node_id":"0.0-130.0","condition":1,"key_mapping":1,"test_mode":false,"subject_id":"","study_id":"","session_id":"","timed_out":false,"device_pixel_ratio":2,"correct_response":"m","correct":true},{"rt":null,"stimulus":"<span class=\"fixation-cross\">+</span>","response":null,"phase":"study","trial_part":"fixation","trial_type":"html-keyboard-response","trial_index":133,"time_elapsed":482401,"internal_node_id":"0.0-131.0","condition":1,"key_mapping":1,"test_mode":false,"subject_id":"","study_id":"","session_id":""},{"rt":909,"stimulus":"<div class=\"flanker-display\" style=\"gap: 0px;\"><img src=\"materials/cfd/Images/CFD/WM-033/CFD-WM-033-014-A.jpg\" class=\"face-image\" style=\"width: 100px; height: 141px;\" /><img src=\"materials/cfd/Images/CFD/LM-220/CFD-LM-220-329-N.jpg\" class=\"face-image\" style=\"width: 100px; height: 141px;\" /><img src=\"materials/cfd/Images/CFD/WM-033/CFD-WM-033-014-A.jpg\" class=\"face-image\" style=\"width: 100px; height: 141px;\" /></div>","response":"m","phase":"study","block":1,"target_id":"LM-220","target_gender":"M","target_race":"L","target_filename":"materials/cfd/Images/CFD/LM-220/CFD-LM-220-329-N.jpg","flanker_id":"WM-033","flanker_gender":"M","flanker_race":"W","flanker_emotion":"angry","flanker_filename":"materials/cfd/Images/CFD/WM-033/CFD-WM-033-014-A.jpg","trial_type":"html-keyboard-response","trial_index":134,"time_elapsed":485403,"internal_node_id":"0.0-132.0","condition":1,"key_mapping":1,"test_mode":false,"subject_id":"","study_id":"","session_id":"","timed_out":false,"device_pixel_ratio":2,"correct_response":"m","correct":true},{"rt":null,"stimulus":"<span class=\"fixation-cross\">+</span>","response":null,"phase":"study","trial_part":"fixation","trial_type":"html-keyboard-response","trial_index":135,"time_elapsed":487406,"internal_node_id":"0.0-133.0","condition":1,"key_mapping":1,"test_mode":false,"subject_id":"","study_id":"","session_id":""},{"rt":1512,"stimulus":"<div class=\"flanker-display\" style=\"gap: 0px;\"><img src=\"materials/cfd/Images/CFD/WF-036/CFD-WF-036-015-A.jpg\" class=\"face-image\" style=\"width: 100px; height: 141px;\" /><img src=\"materials/cfd/Images/CFD/BF-030/CFD-BF-030-002-N.jpg\" class=\"face-image\" style=\"width: 100px; height: 141px;\" /><img src=\"materials/cfd/Images/CFD/WF-036/CFD-WF-036-015-A.jpg\" class=\"face-image\" style=\"width: 100px; height: 141px;\" /></div>","response":"z","phase":"study","block":1,"target_id":"BF-030","target_gender":"F","target_race":"B","target_filename":"materials/cfd/Images/CFD/BF-030/CFD-BF-030-002-N.jpg","flanker_id":"WF-036","flanker_gender":"F","flanker_race":"W","flanker_emotion":"angry","flanker_filename":"materials/cfd/Images/CFD/WF-036/CFD-WF-036-015-A.jpg","trial_type":"html-keyboard-response","trial_index":136,"time_elapsed":490409,"internal_node_id":"0.0-134.0","condition":1,"key_mapping":1,"test_mode":false,"subject_id":"","study_id":"","session_id":"","timed_out":false,"device_pixel_ratio":2,"correct_response":"z","correct":true},{"view_history":[{"page_index":0,"viewing_time":47672}],"rt":47673,"trial_type":"instructions","trial_index":137,"time_elapsed":538082,"internal_node_id":"0.0-135.0","condition":1,"key_mapping":1,"test_mode":false,"subject_id":"","study_id":"","session_id":""},{"rt":3172,"stimulus":"<p>Press the key for <strong>OLD</strong></p>","response":"z","trial_part":"key_quiz","correct_key":"z","trial_type":"html-keyboard-response","trial_index":138,"time_elapsed":541255,"internal_node_id":"0.0-136.0-0.0","condition":1,"key_mapping":1,"test_mode":false,"subject_id":"","study_id":"","session_id":""},{"rt":null,"stimulus":"<p style=\"color: #6b6;\">Correct!</p>","response":null,"trial_type":"html-keyboard-response","trial_index":139,"time_elapsed":542258,"internal_node_id":"0.0-136.0-1.0","condition":1,"key_mapping":1,"test_mode":false,"subject_id":"","study_id":"","session_id":""},{"rt":1408,"stimulus":"<p>Press the key for <strong>NEW</strong></p>","response":"m","trial_part":"key_quiz","correct_key":"m","trial_type":"html-keyboard-response","trial_index":140,"time_elapsed":543667,"internal_node_id":"0.0-137.0-0.0","condition":1,"key_mapping":1,"test_mode":false,"subject_id":"","study_id":"","session_id":""},{"rt":null,"stimulus":"<p style=\"color: #6b6;\">Correct!</p>","response":null,"trial_type":"html-keyboard-response","trial_index":141,"time_elapsed":544669,"internal_node_id":"0.0-137.0-1.0","condition":1,"key_mapping":1,"test_mode":false,"subject_id":"","study_id":"","session_id":""},{"rt":2013,"stimulus":"<h2>Practice Trials</h2><p>You will now complete a few practice trials to familiarize yourself with the task.</p><p>Press any key to begin the practice.</p>","response":"m","trial_type":"html-keyboard-response","trial_index":142,"time_elapsed":546683,"internal_node_id":"0.0-138.0","condition":1,"key_mapping":1,"test_mode":false,"subject_id":"","study_id":"","session_id":""},{"rt":null,"stimulus":"<span class=\"fixation-cross\">+</span>","response":null,"phase":"test","trial_part":"fixation","trial_type":"html-keyboard-response","trial_index":143,"time_elapsed":548686,"internal_node_id":"0.0-139.0","condition":1,"key_mapping":1,"test_mode":false,"subject_id":"","study_id":"","session_id":""},{"rt":2423,"stimulus":"<div class=\"single-face-display\"><img src=\"materials/cfd/Images/CFD/WF-017/CFD-WF-017-003-N.jpg\" class=\"face-image\" style=\"width: 100px; height: 141px;\" /></div>","response":"z","phase":"test","block":"practice","target_id":"WF-017","target_gender":"F","target_race":"W","target_filename":"materials/cfd/Images/CFD/WF-017/CFD-WF-017-003-N.jpg","stimulus_type":"old","study_flanker_emotion":"neutral","study_flanker_gender":null,"correct_response":"z","trial_type":"html-keyboard-response","trial_index":144,"time_elapsed":551111,"internal_node_id":"0.0-140.0","condition":1,"key_mapping":1,"test_mode":false,"subject_id":"","study_id":"","session_id":"","timed_out":false,"device_pixel_ratio":2,"correct":true},{"rt":null,"stimulus":"<span class=\"fixation-cross\">+</span>","response":null,"phase":"test","trial_part":"fixation","trial_type":"html-keyboard-response","trial_index":145,"time_elapsed":553113,"internal_node_id":"0.0-141.0","condition":1,"key_mapping":1,"test_mode":false,"subject_id":"","study_id":"","session_id":""},{"rt":1171,"stimulus":"<div class=\"single-face-display\"><img src=\"materials/cfd/Images/CFD/WF-034/CFD-WF-034-006-N.jpg\" class=\"face-image\" style=\"width: 100px; height: 141px;\" /></div>","response":"z","phase":"test","block":"practice","target_id":"WF-034","target_gender":"F","target_race":"W","target_filename":"materials/cfd/Images/CFD/WF-034/CFD-WF-034-006-N.jpg","stimulus_type":"old","study_flanker_emotion":"neutral","study_flanker_gender":null,"correct_response":"z","trial_type":"html-keyboard-response","trial_index":146,"time_elapsed":554286,"internal_node_id":"0.0-142.0","condition":1,"key_mapping":1,"test_mode":false,"subject_id":"","study_id":"","session_id":"","timed_out":false,"device_pixel_ratio":2,"correct":true},{"rt":null,"stimulus":"<span class=\"fixation-cross\">+</span>","response":null,"phase":"test","trial_part":"fixation","trial_type":"html-keyboard-response","trial_index":147,"time_elapsed":556288,"internal_node_id":"0.0-143.0","condition":1,"key_mapping":1,"test_mode":false,"subject_id":"","study_id":"","session_id":""},{"rt":860,"stimulus":"<div class=\"single-face-display\"><img src=\"materials/cfd/Images/CFD/AM-215/CFD-AM-215-120-N.jpg\" class=\"face-image\" style=\"width: 100px; height: 141px;\" /></div>","response":"z","phase":"test","block":"practice","target_id":"AM-215","target_gender":"M","target_race":"A","target_filename":"materials/cfd/Images/CFD/AM-215/CFD-AM-215-120-N.jpg","stimulus_type":"new","study_flanker_emotion":null,"study_flanker_gender":null,"correct_response":"m","trial_type":"html-keyboard-response","trial_index":148,"time_elapsed":557150,"internal_node_id":"0.0-144.0","condition":1,"key_mapping":1,"test_mode":false,"subject_id":"","study_id":"","session_id":"","timed_out":false,"device_pixel_ratio":2,"correct":false},{"rt":null,"stimulus":"<span class=\"fixation-cross\">+</span>","response":null,"phase":"test","trial_part":"fixation","trial_type":"html-keyboard-response","trial_index":149,"time_elapsed":559152,"internal_node_id":"0.0-145.0","condition":1,"key_mapping":1,"test_mode":false,"subject_id":"","study_id":"","session_id":""},{"rt":768,"stimulus":"<div class=\"single-face-display\"><img src=\"materials/cfd/Images/CFD/LM-213/CFD-LM-213-061-N.jpg\" class=\"face-image\" style=\"width: 100px; height: 141px;\" /></div>","response":"z","phase":"test","block":"practice","target_id":"LM-213","target_gender":"M","target_race":"L","target_filename":"materials/cfd/Images/CFD/LM-213/CFD-LM-213-061-N.jpg","stimulus_type":"new","study_flanker_emotion":null,"study_flanker_gender":null,"correct_response":"m","trial_type":"html-keyboard-response","trial_index":150,"time_elapsed":559922,"internal_node_id":"0.0-146.0","condition":1,"key_mapping":1,"test_mode":false,"subject_id":"","study_id":"","session_id":"","timed_out":false,"device_pixel_ratio":2,"correct":false},{"rt":2583,"stimulus":"<h2>Practice Complete</h2><p>The practice trials are over. The real trials will begin next.</p><p>From now on, the key instructions will <strong>not</strong> be displayed on screen during trials.</p><p>Reminder: <strong>Z</strong> = OLD &nbsp;&nbsp; <strong>M</strong> = NEW</p><p>Press any key to continue.</p>","response":" ","trial_type":"html-keyboard-response","trial_index":151,"time_elapsed":562506,"internal_node_id":"0.0-147.0","condition":1,"key_mapping":1,"test_mode":false,"subject_id":"","study_id":"","session_id":""},{"rt":null,"stimulus":"<span class=\"fixation-cross\">+</span>","response":null,"phase":"test","