subject_number,condition,trial_number,phase,block,target_gender,target_race,flanker_gender,flanker_race,flanker_emotion,stimulus_type,study_flanker_emotion,study_flanker_gender,pair_type,response,rt,correct,timed_out,rating
1,1,1,study,0,female,Black,male,Black,neutral,,,,,m,1546,True,False,
1,1,2,study,0,male,Black,female,Black,angry,,,,,z,1601,True,False,
1,1,3,study,0,male,White,male,Black,neutral,,,,,z,1828,True,False,
1,1,4,study,0,male,Latino,female,White,happy,,,,,m,1223,False,False,
1,1,5,study,0,male,Asian,male,White,angry,,,,,z,816,True,False,
1,1,6,study,0,female,Black,female,White,neutral,,,,,m,944,True,False,
1,1,7,study,0,male,Black,male,White,happy,,,,,z,1375,True,False,
1,1,8,study,0,female,White,female,Black,happy,,,,,m,849,True,False,
1,1,9,study,0,female,Black,male,White,happy,,,,,m,978,True,False,
1,1,10,study,0,female,White,female,White,angry,,,,,m,1212,True,False,
1,1,11,study,0,male,White,female,Black,neutral,,,,,z,1154,True,False,
1,1,12,study,0,male,White,male,Black,neutral,,,,,z,1463,True,False,
1,1,13,study,0,male,Latino,male,White,happy,,,,,z,1448,True,False,
1,1,14,study,0,male,Latino,male,White,happy,,,,,z,1075,True,False,
1,1,15,study,0,male,Black,male,Black,happy,,,,,z,712,True,False,
1,1,16,study,0,female,Black,female,White,neutral,,,,,m,879,True,False,
1,1,17,study,0,male,Latino,female,Black,angry,,,,,z,1179,True,False,
1,1,18,study,0,female,White,male,Black,happy,,,,,m,1143,True,False,
1,1,19,study,0,female,Asian,female,Black,neutral,,,,,m,989,True,False,
1,1,20,study,0,female,White,female,White,happy,,,,,m,807,True,False,
1,1,21,study,0,male,Latino,female,Black,neutral,,,,,z,1157,True,False,
1,1,22,study,0,female,Black,male,Black,neutral,,,,,m,1014,True,False,
1,1,23,study,0,female,Black,female,Black,angry,,,,,m,936,True,False,
1,1,24,study,0,female,Black,female,White,neutral,,,,,m,934,True,False,
1,1,25,study,0,male,Black,male,White,angry,,,,,z,1655,True,False,
1,1,26,study,0,female,Black,male,Black,happy,,,,,m,1218,True,False,
1,1,27,study,0,female,Latino,male,Black,happy,,,,,m,838,True,False,
1,1,28,study,0,male,Black,female,White,happy,,,,,z,1205,True,False,
1,1,29,study,0,male,Latino,male,Black,angry,,,,,z,1851,True,False,
1,1,30,study,0,male,Latino,male,Black,neutral,,,,,z,1092,True,False,
1,1,31,study,0,female,Black,male,Black,neutral,,,,,m,1813,True,False,
1,1,32,study,0,male,Asian,male,Black,angry,,,,,z,1457,True,False,
1,1,33,study,0,male,Asian,female,White,angry,,,,,z,1623,True,False,
1,1,34,study,0,female,Asian,female,Black,happy,,,,,m,1198,True,False,
1,1,35,study,0,female,Asian,male,Black,neutral,,,,,m,1485,True,False,
1,1,36,study,0,male,White,female,Black,neutral,,,,,z,1541,True,False,
1,1,37,study,0,male,Black,female,White,happy,,,,,z,1399,True,False,
1,1,38,study,0,female,Latino,female,Black,happy,,,,,m,1312,True,False,
1,1,39,study,0,male,White,male,White,angry,,,,,z,1203,True,False,
1,1,40,study,0,female,Asian,female,Black,angry,,,,,m,1708,True,False,
1,1,41,study,1,male,White,female,Black,neutral,,,,,z,1333,True,False,
1,1,42,study,1,female,Black,female,Black,happy,,,,,m,1400,True,False,
1,1,43,study,1,female,Latino,female,Black,neutral,,,,,m,1144,True,False,
1,1,44,study,1,female,Black,male,White,neutral,,,,,m,2361,True,False,
1,1,45,study,1,female,Black,male,Black,neutral,,,,,m,902,True,False,
1,1,46,study,1,male,Asian,female,White,neutral,,,,,z,1374,True,False,
1,1,47,study,1,male,Black,female,Black,neutral,,,,,z,1716,True,False,
1,1,48,study,1,male,Black,male,White,neutral,,,,,z,1346,True,False,
1,1,49,study,1,female,Asian,male,Black,angry,,,,,m,1113,True,False,
1,1,50,study,1,male,Black,female,White,happy,,,,,z,1442,True,False,
1,1,51,study,1,male,White,female,Black,happy,,,,,z,1480,True,False,
1,1,52,study,1,male,Latino,female,Black,angry,,,,,z,2057,True,False,
1,1,53,study,1,female,Latino,male,White,angry,,,,,m,942,True,False,
1,1,54,study,1,female,Latino,male,White,angry,,,,,m,1678,True,False,
1,1,55,study,1,male,White,female,Black,neutral,,,,,z,1579,True,False,
1,1,56,study,1,male,Latino,female,Black,neutral,,,,,z,1562,True,False,
1,1,57,study,1,male,Black,male,Black,neutral,,,,,z,1570,True,False,
1,1,58,study,1,female,Black,male,Black,happy,,,,,m,896,True,False,
1,1,59,study,1,male,White,female,Black,angry,,,,,z,1018,True,False,
1,1,60,study,1,male,Asian,male,White,angry,,,,,z,1142,True,False,
1,1,61,study,1,male,Asian,female,Black,happy,,,,,z,785,True,False,
1,1,62,study,1,male,Asian,female,White,angry,,,,,z,730,True,False,
1,1,63,study,1,female,Black,female,Black,neutral,,,,,m,928,True,False,
1,1,64,study,1,female,White,male,Black,angry,,,,,m,1243,True,False,
1,1,65,study,1,female,White,male,White,angry,,,,,m,985,True,False,
1,1,66,study,1,female,White,female,White,happy,,,,,m,888,True,False,
1,1,67,study,1,female,White,male,White,neutral,,,,,m,787,True,False,
1,1,68,study,1,male,Black,female,Black,happy,,,,,z,1186,True,False,
1,1,69,study,1,female,Asian,female,Black,angry,,,,,m,942,True,False,
1,1,70,study,1,male,Latino,female,Black,neutral,,,,,z,1398,True,False,
1,1,71,study,1,male,Asian,male,Black,neutral,,,,,z,1340,True,False,
1,1,72,study,1,male,White,female,Black,happy,,,,,z,1232,True,False,
1,1,73,study,1,male,Latino,female,Black,angry,,,,,z,1395,True,False,
1,1,74,study,1,female,Latino,female,White,neutral,,,,,m,924,True,False,
1,1,75,study,1,female,White,female,White,angry,,,,,m,1484,True,False,
1,1,76,study,1,female,White,male,Black,happy,,,,,m,1133,True,False,
1,1,77,study,1,female,White,male,White,happy,,,,,m,741,True,False,
1,1,78,study,1,male,Asian,female,Black,angry,,,,,z,949,True,False,
1,1,79,study,1,female,Black,female,White,happy,,,,,m,1183,True,False,
1,1,80,study,1,male,Black,female,White,angry,,,,,z,1728,True,False,
1,1,81,study,2,male,Black,male,White,neutral,,,,,z,1372,True,False,
1,1,82,study,2,female,Latino,male,White,angry,,,,,m,985,True,False,
1,1,83,study,2,male,White,male,White,angry,,,,,z,1093,True,False,
1,1,84,study,2,female,Asian,female,White,angry,,,,,m,973,True,False,
1,1,85,study,2,male,White,female,White,angry,,,,,z,1233,True,False,
1,1,86,study,2,female,Latino,female,Black,angry,,,,,m,1047,True,False,
1,1,87,study,2,male,White,male,Black,happy,,,,,z,997,True,False,
1,1,88,study,2,female,Asian,female,White,angry,,,,,m,948,True,False,
1,1,89,study,2,male,White,male,Black,angry,,,,,z,1207,True,False,
1,1,90,study,2,female,Asian,female,White,happy,,,,,m,903,True,False,
1,1,91,study,2,female,Asian,male,Black,neutral,,,,,m,1158,True,False,
1,1,92,study,2,male,White,male,Black,neutral,,,,,z,1266,True,False,
1,1,93,study,2,female,Asian,female,Black,happy,,,,,m,974,True,False,
1,1,94,study,2,male,White,female,White,happy,,,,,z,1226,True,False,
1,1,95,study,2,male,Latino,male,White,happy,,,,,z,1705,True,False,
1,1,96,study,2,male,Black,male,Black,happy,,,,,z,1404,True,False,
1,1,97,study,2,female,White,male,Black,angry,,,,,m,910,True,False,
1,1,98,study,2,female,Latino,female,White,happy,,,,,m,1273,True,False,
1,1,99,study,2,female,Black,male,White,angry,,,,,m,1475,True,False,
1,1,100,study,2,male,Latino,male,White,happy,,,,,z,1042,True,False,
1,1,101,study,2,female,White,male,White,angry,,,,,m,775,True,False,
1,1,102,study,2,female,Latino,female,White,neutral,,,,,m,1111,True,False,
1,1,103,study,2,male,Black,male,Black,happy,,,,,z,1075,True,False,
1,1,104,study,2,female,White,male,White,happy,,,,,m,1336,True,False,
1,1,105,study,2,male,White,male,Black,angry,,,,,z,1381,True,False,
1,1,106,study,2,male,White,male,Black,angry,,,,,z,1481,True,False,
1,1,107,study,2,female,White,female,White,angry,,,,,m,2103,True,False,
1,1,108,study,2,female,Black,female,Black,neutral,,,,,m,886,True,False,
1,1,109,study,2,female,Latino,male,White,neutral,,,,,m,793,True,False,
1,1,110,study,2,male,Latino,male,Black,neutral,,,,,z,1567,True,False,
1,1,111,study,2,female,Asian,male,Black,angry,,,,,m,2187,True,False,
1,1,112,study,2,male,Latino,male,Black,neutral,,,,,z,854,True,False,
1,1,113,study,2,male,Latino,female,Black,neutral,,,,,z,1295,True,False,
1,1,114,study,2,male,Asian,female,Black,happy,,,,,z,1311,True,False,
1,1,115,study,2,male,Asian,male,Black,happy,,,,,z,1479,True,False,
1,1,116,study,2,female,Latino,female,White,angry,,,,,m,1060,True,False,
1,1,117,study,2,female,White,female,White,neutral,,,,,m,879,True,False,
1,1,118,study,2,female,Latino,male,White,neutral,,,,,m,902,True,False,
1,1,119,study,2,female,Black,male,Black,happy,,,,,m,710,True,False,
1,1,120,study,2,female,Black,male,White,happy,,,,,m,812,True,False,
1,1,121,test,0,male,White,,,,new,,,,z,1515,True,False,
1,1,122,test,0,female,White,,,,new,,,,z,1365,True,False,
1,1,123,test,0,female,Black,,,,new,,,,z,1236,True,False,
1,1,124,test,0,female,White,,,,old,happy,male,,m,702,True,False,
1,1,125,test,0,male,Asian,,,,old,angry,female,,m,709,True,False,
1,1,126,test,0,male,Black,,,,old,angry,female,,m,726,True,False,
1,1,127,test,0,male,Latino,,,,old,neutral,female,,m,1129,True,False,
1,1,128,test,0,female,Asian,,,,old,neutral,female,,z,1132,False,False,
1,1,129,test,0,female,White,,,,new,,,,z,1211,True,False,
1,1,130,test,0,female,White,,,,old,happy,female,,m,965,True,False,
1,1,131,test,0,female,Black,,,,old,neutral,female,,m,973,True,False,
1,1,132,test,0,female,Latino,,,,old,angry,female,,m,892,True,False,
1,1,133,test,0,female,Black,,,,new,,,,z,1446,True,False,
1,1,134,test,0,female,Black,,,,new,,,,z,1517,True,False,
1,1,135,test,0,female,Latino,,,,new,,,,m,1307,False,False,
1,1,136,test,0,male,White,,,,new,,,,z,1990,True,False,
1,1,137,test,0,male,White,,,,old,neutral,male,,m,1174,True,False,
1,1,138,test,0,male,Black,,,,old,happy,female,,z,1064,False,False,
1,1,139,test,0,female,Asian,,,,new,,,,m,871,False,False,
1,1,140,test,0,female,Latino,,,,old,happy,female,,m,958,True,False,
1,1,141,test,0,female,Asian,,,,new,,,,m,1279,False,False,
1,1,142,test,0,male,Asian,,,,old,angry,male,,m,1061,True,False,
1,1,143,test,0,female,White,,,,old,angry,male,,m,723,True,False,
1,1,144,test,0,male,Latino,,,,old,happy,female,,m,1593,True,False,
1,1,145,test,0,male,Black,,,,new,,,,m,985,False,False,
1,1,146,test,0,male,Latino,,,,new,,,,z,965,True,False,
1,1,147,test,0,female,White,,,,old,happy,male,,m,998,True,False,
1,1,148,test,0,male,Latino,,,,new,,,,z,981,True,False,
1,1,149,test,0,female,Asian,,,,new,,,,z,1511,True,False,
1,1,150,test,0,male,Black,,,,new,,,,m,967,False,False,
1,1,151,test,0,male,Black,,,,old,neutral,male,,m,807,True,False,
1,1,152,test,0,female,White,,,,new,,,,m,840,False,False,
1,1,153,test,0,female,Latino,,,,new,,,,z,1091,True,False,
1,1,154,test,0,male,White,,,,old,neutral,female,,m,1047,True,False,
1,1,155,test,0,male,Asian,,,,old,happy,female,,m,921,True,False,
1,1,156,test,0,male,Black,,,,new,,,,m,1382,False,False,
1,1,157,test,0,female,Asian,,,,old,angry,female,,z,1504,False,False,
1,1,158,test,0,female,Black,,,,old,angry,male,,m,944,True,False,
1,1,159,test,0,female,White,,,,old,angry,female,,z,1322,False,False,
1,1,160,test,0,female,White,,,,new,,,,z,1276,True,False,
1,1,161,test,1,female,Black,,,,old,neutral,male,,m,1156,True,False,
1,1,162,test,1,female,Latino,,,,old,neutral,male,,z,1022,False,False,
1,1,163,test,1,female,Black,,,,old,happy,female,,m,645,True,False,
1,1,164,test,1,female,White,,,,new,,,,m,1001,False,False,
1,1,165,test,1,male,Asian,,,,new,,,,z,1361,True,False,
1,1,166,test,1,female,Black,,,,new,,,,z,1279,True,False,
1,1,167,test,1,female,White,,,,old,happy,female,,z,1243,False,False,
1,1,168,test,1,female,Latino,,,,old,neutral,female,,z,1165,False,False,
1,1,169,test,1,female,Latino,,,,old,neutral,female,,z,1088,False,False,
1,1,170,test,1,female,Black,,,,old,neutral,male,,m,944,True,False,
1,1,171,test,1,male,Black,,,,new,,,,z,1063,True,False,
1,1,172,test,1,male,White,,,,old,angry,male,,m,1022,True,False,
1,1,173,test,1,male,Latino,,,,new,,,,z,981,True,False,
1,1,174,test,1,male,White,,,,old,angry,male,,z,963,False,False,
1,1,175,test,1,female,White,,,,new,,,,m,1346,False,False,
1,1,176,test,1,female,White,,,,new,,,,z,1518,True,False,
1,1,177,test,1,female,White,,,,new,,,,m,1330,False,False,
1,1,178,test,1,male,White,,,,new,,,,z,1628,True,False,
1,1,179,test,1,female,Asian,,,,new,,,,m,1061,False,False,
1,1,180,test,1,female,Black,,,,new,,,,m,972,False,False,
1,1,181,test,1,male,Latino,,,,old,happy,male,,m,1079,True,False,
1,1,182,test,1,female,Black,,,,new,,,,m,1159,False,False,
1,1,183,test,1,male,White,,,,old,neutral,female,,z,1228,False,False,
1,1,184,test,1,male,White,,,,new,,,,z,1385,True,False,
1,1,185,test,1,female,Black,,,,old,happy,male,,z,1305,False,False,
1,1,186,test,1,male,Latino,,,,old,happy,male,,m,1152,True,False,
1,1,187,test,1,female,Latino,,,,new,,,,z,1711,True,False,
1,1,188,test,1,male,Latino,,,,new,,,,z,1399,True,False,
1,1,189,test,1,male,Latino,,,,new,,,,m,1273,False,False,
1,1,190,test,1,female,Black,,,,old,happy,female,,m,1054,True,False,
1,1,191,test,1,male,Black,,,,old,happy,male,,m,918,True,False,
1,1,192,test,1,male,White,,,,old,neutral,male,,z,868,False,False,
1,1,193,test,1,male,White,,,,old,angry,male,,m,1025,True,False,
1,1,194,test,1,male,Latino,,,,new,,,,z,900,True,False,
1,1,195,test,1,female,Latino,,,,old,happy,male,,z,1253,False,False,
1,1,196,test,1,male,White,,,,new,,,,z,1595,True,False,
1,1,197,test,1,female,White,,,,old,happy,male,,m,1161,True,False,
1,1,198,test,1,female,Asian,,,,old,angry,male,,z,1564,False,False,
1,1,199,test,1,male,Asian,,,,new,,,,z,930,True,False,
1,1,200,test,1,female,Asian,,,,old,angry,male,,z,1037,False,False,
1,1,201,test,2,female,Asian,,,,new,,,,m,1174,False,False,
1,1,202,test,2,female,Asian,,,,new,,,,z,1242,True,False,
1,1,203,test,2,male,Black,,,,old,angry,female,,z,1180,False,False,
1,1,204,test,2,male,White,,,,old,neutral,male,,m,1001,True,False,
1,1,205,test,2,female,Latino,,,,old,neutral,male,,m,1298,True,False,
1,1,206,test,2,female,Latino,,,,old,angry,male,,z,1378,False,False,
1,1,207,test,2,female,Latino,,,,old,neutral,female,,z,857,False,False,
1,1,208,test,2,female,Asian,,,,new,,,,z,1194,True,False,
1,1,209,test,2,female,Asian,,,,old,neutral,male,,z,1051,False,False,
1,1,210,test,2,male,Latino,,,,new,,,,z,1112,True,False,
1,1,211,test,2,male,Asian,,,,new,,,,z,1097,True,False,
1,1,212,test,2,female,White,,,,old,angry,female,,m,721,True,False,
1,1,213,test,2,male,Black,,,,old,neutral,female,,m,951,True,False,
1,1,214,test,2,male,White,,,,old,neutral,female,,z,1023,False,False,
1,1,215,test,2,female,Asian,,,,old,angry,female,,m,797,True,False,
1,1,216,test,2,female,Latino,,,,old,angry,male,,m,890,True,False,
1,1,217,test,2,male,White,,,,old,happy,female,,z,1023,False,False,
1,1,218,test,2,male,Black,,,,old,happy,female,,m,844,True,False,
1,1,219,test,2,female,Black,,,,new,,,,m,1002,False,False,
1,1,220,test,2,female,Asian,,,,old,happy,female,,m,974,True,False,
1,1,221,test,2,male,White,,,,new,,,,z,847,True,False,
1,1,222,test,2,male,Black,,,,old,happy,female,,m,1178,True,False,
1,1,223,test,2,female,Black,,,,old,neutral,male,,z,1040,False,False,
1,1,224,test,2,female,White,,,,new,,,,z,1108,True,False,
1,1,225,test,2,male,Latino,,,,old,neutral,male,,z,901,False,False,
1,1,226,test,2,male,White,,,,new,,,,z,1133,True,False,
1,1,227,test,2,male,Latino,,,,new,,,,m,1522,False,False,
1,1,228,test,2,female,Black,,,,new,,,,z,1700,True,False,
1,1,229,test,2,male,Asian,,,,new,,,,z,890,True,False,
1,1,230,test,2,female,Black,,,,old,neutral,male,,z,1802,False,False,
1,1,231,test,2,female,Black,,,,old,angry,female,,z,1630,False,False,
1,1,232,test,2,male,Asian,,,,new,,,,z,902,True,False,
1,1,233,test,2,female,Latino,,,,old,angry,male,,m,868,True,False,
1,1,234,test,2,female,White,,,,new,,,,m,842,False,False,
1,1,235,test,2,female,Black,,,,old,neutral,female,,z,1423,False,False,
1,1,236,test,2,male,Asian,,,,new,,,,z,1535,True,False,
1,1,237,test,2,male,Latino,,,,old,neutral,male,,z,981,False,False,
1,1,238,test,2,female,Black,,,,new,,,,z,1188,True,False,
1,1,239,test,2,male,Asian,,,,new,,,,z,1015,True,False,
1,1,240,test,2,male,Black,,,,new,,,,m,1093,False,False,
1,1,241,test,3,female,White,,,,old,neutral,female,,z,1682,False,False,
1,1,242,test,3,male,Black,,,,new,,,,z,945,True,False,
1,1,243,test,3,male,Asian,,,,new,,,,z,1030,True,False,
1,1,244,test,3,male,White,,,,old,happy,female,,m,906,True,False,
1,1,245,test,3,female,White,,,,old,angry,male,,z,710,False,False,
1,1,246,test,3,male,White,,,,old,happy,male,,m,964,True,False,
1,1,247,test,3,male,Black,,,,new,,,,z,1055,True,False,
1,1,248,test,3,female,Latino,,,,new,,,,z,869,True,False,
1,1,249,test,3,female,Asian,,,,new,,,,m,982,False,False,
1,1,250,test,3,male,Black,,,,new,,,,m,929,False,False,
1,1,251,test,3,female,Asian,,,,old,happy,female,,z,1037,False,False,
1,1,252,test,3,female,Asian,,,,new,,,,z,1317,True,False,
1,1,253,test,3,male,Asian,,,,new,,,,z,910,True,False,
1,1,254,test,3,female,Black,,,,old,neutral,male,,z,914,False,False,
1,1,255,test,3,male,Asian,,,,old,happy,male,,z,647,False,False,
1,1,256,test,3,male,Asian,,,,new,,,,z,1037,True,False,
1,1,257,test,3,female,White,,,,new,,,,z,1094,True,False,
1,1,258,test,3,female,Black,,,,new,,,,z,1188,True,False,
1,1,259,test,3,male,Asian,,,,new,,,,z,1049,True,False,
1,1,260,test,3,female,Black,,,,new,,,,m,1117,False,False,
1,1,261,test,3,male,Latino,,,,old,neutral,female,,z,1441,False,False,
1,1,262,test,3,male,Latino,,,,old,angry,female,,z,1012,False,False,
1,1,263,test,3,female,Asian,,,,new,,,,z,2072,True,False,
1,1,264,test,3,female,White,,,,old,angry,male,,z,2041,False,False,
1,1,265,test,3,female,Asian,,,,new,,,,m,874,False,False,
1,1,266,test,3,male,Black,,,,old,angry,male,,m,930,True,False,
1,1,267,test,3,male,White,,,,old,angry,male,,z,875,False,False,
1,1,268,test,3,female,Black,,,,new,,,,z,1210,True,False,
1,1,269,test,3,male,White,,,,old,neutral,female,,z,1426,False,False,
1,1,270,test,3,female,Latino,,,,new,,,,z,1583,True,False,
1,1,271,test,3,male,White,,,,new,,,,z,872,True,False,
1,1,272,test,3,male,Asian,,,,new,,,,z,1354,True,False,
1,1,273,test,3,female,White,,,,old,happy,male,,z,837,False,False,
1,1,274,test,3,male,Latino,,,,new,,,,m,1063,False,False,
1,1,275,test,3,male,Latino,,,,old,neutral,female,,m,973,True,False,
1,1,276,test,3,male,White,,,,new,,,,z,968,True,False,
1,1,277,test,3,male,White,,,,old,angry,female,,m,1048,True,False,
1,1,278,test,3,female,White,,,,new,,,,m,1270,False,False,
1,1,279,test,3,female,Asian,,,,old,angry,female,,m,748,True,False,
1,1,280,test,3,female,Asian,,,,new,,,,z,1410,True,False,
1,1,281,test,4,male,Asian,,,,old,angry,female,,m,1379,True,False,
1,1,282,test,4,male,Latino,,,,old,angry,male,,z,1281,False,False,
1,1,283,test,4,male,Black,,,,new,,,,m,2239,False,False,
1,1,284,test,4,male,Asian,,,,new,,,,z,1196,True,False,
1,1,285,test,4,male,White,,,,old,happy,female,,z,1312,False,False,
1,1,286,test,4,male,Latino,,,,new,,,,z,1335,True,False,
1,1,287,test,4,male,Black,,,,old,neutral,male,,m,1586,True,False,
1,1,288,test,4,male,Latino,,,,old,neutral,male,,m,1271,True,False,
1,1,289,test,4,male,Black,,,,new,,,,m,872,False,False,
1,1,290,test,4,female,Asian,,,,old,angry,female,,m,908,True,False,
1,1,291,test,4,male,White,,,,old,angry,female,,m,745,True,False,
1,1,292,test,4,male,Black,,,,old,neutral,male,,m,934,True,False,
1,1,293,test,4,male,Latino,,,,old,angry,female,,z,1050,False,False,
1,1,294,test,4,female,White,,,,old,happy,female,,z,1433,False,False,
1,1,295,test,4,male,Asian,,,,old,angry,male,,m,1125,True,False,
1,1,296,test,4,female,Black,,,,old,happy,male,,z,1091,False,False,
1,1,297,test,4,female,White,,,,old,angry,male,,z,896,False,False,
1,1,298,test,4,female,Asian,,,,old,happy,female,,z,1116,False,False,
1,1,299,test,4,female,White,,,,old,neutral,male,,z,1491,False,False,
1,1,300,test,4,male,Black,,,,old,happy,male,,m,1734,True,False,
1,1,301,test,4,female,Asian,,,,new,,,,z,2066,True,False,
1,1,302,test,4,male,Latino,,,,old,happy,male,,z,2806,False,False,
1,1,303,test,4,male,Latino,,,,old,angry,female,,m,995,True,False,
1,1,304,test,4,male,Black,,,,new,,,,m,2662,False,False,
1,1,305,test,4,female,Black,,,,new,,,,z,1192,True,False,
1,1,306,test,4,female,Latino,,,,new,,,,z,1480,True,False,
1,1,307,test,4,female,White,,,,new,,,,z,1996,True,False,
1,1,308,test,4,male,White,,,,new,,,,z,1629,True,False,
1,1,309,test,4,female,Black,,,,old,happy,male,,m,1960,True,False,
1,1,310,test,4,male,Asian,,,,new,,,,m,2231,False,False,
1,1,311,test,4,female,Asian,,,,old,neutral,male,,m,2187,True,False,
1,1,312,test,4,female,Black,,,,old,neutral,female,,m,2385,True,False,
1,1,313,test,4,female,White,,,,new,,,,z,2032,True,False,
1,1,314,test,4,male,White,,,,new,,,,m,1820,False,False,
1,1,315,test,4,male,Asian,,,,old,angry,female,,m,905,True,False,
1,1,316,test,4,female,White,,,,new,,,,z,960,True,False,
1,1,317,test,4,female,White,,,,new,,,,z,1719,True,False,
1,1,318,test,4,male,White,,,,new,,,,z,1505,True,False,
1,1,319,test,4,male,White,,,,new,,,,z,1333,True,False,
1,1,320,test,4,female,Black,,,,new,,,,m,1134,False,False,
1,1,321,test,5,male,Latino,,,,old,happy,male,,m,1771,True,False,
1,1,322,test,5,male,Black,,,,new,,,,m,897,False,False,
1,1,323,test,5,male,Asian,,,,new,,,,z,980,True,False,
1,1,324,test,5,female,Latino,,,,new,,,,z,832,True,False,
1,1,325,test,5,male,Asian,,,,old,neutral,male,,z,1336,False,False,
1,1,326,test,5,female,Black,,,,old,happy,male,,z,1827,False,False,
1,1,327,test,5,female,White,,,,new,,,,m,1564,False,False,
1,1,328,test,5,male,Black,,,,old,happy,male,,m,1042,True,False,
1,1,329,test,5,female,White,,,,new,,,,z,1342,True,False,
1,1,330,test,5,female,Asian,,,,new,,,,z,1287,True,False,
1,1,331,test,5,female,Latino,,,,old,happy,female,,m,975,True,False,
1,1,332,test,5,male,Black,,,,new,,,,z,943,True,False,
1,1,333,test,5,male,Latino,,,,new,,,,m,969,False,False,
1,1,334,test,5,female,White,,,,old,angry,female,,z,1831,False,False,
1,1,335,test,5,male,Black,,,,old,happy,male,,m,824,True,False,
1,1,336,test,5,female,Black,,,,old,neutral,female,,z,1352,False,False,
1,1,337,test,5,female,White,,,,new,,,,m,1563,False,False,
1,1,338,test,5,male,Asian,,,,new,,,,z,1696,True,False,
1,1,339,test,5,male,Latino,,,,old,neutral,female,,m,1190,True,False,
1,1,340,test,5,male,Black,,,,new,,,,z,1371,True,False,
1,1,341,test,5,male,Asian,,,,new,,,,z,1731,True,False,
1,1,342,test,5,female,Black,,,,new,,,,z,1092,True,False,
1,1,343,test,5,male,Asian,,,,old,neutral,female,,z,1683,False,False,
1,1,344,test,5,female,Black,,,,old,happy,male,,m,1943,True,False,
1,1,345,test,5,female,Asian,,,,new,,,,z,1498,True,False,
1,1,346,test,5,female,Latino,,,,old,angry,female,,m,1603,True,False,
1,1,347,test,5,male,Asian,,,,old,angry,male,,m,1264,True,False,
1,1,348,test,5,male,Black,,,,old,happy,female,,m,1354,True,False,
1,1,349,test,5,female,Black,,,,old,neutral,female,,z,1080,False,False,
1,1,350,test,5,female,White,,,,new,,,,z,1047,True,False,
1,1,351,test,5,male,White,,,,new,,,,z,1119,True,False,
1,1,352,test,5,female,Latino,,,,new,,,,z,1547,True,False,
1,1,353,test,5,male,Latino,,,,new,,,,z,1065,True,False,
1,1,354,test,5,male,White,,,,old,angry,male,,m,1361,True,False,
1,1,355,test,5,male,Asian,,,,old,happy,female,,z,1164,False,False,
1,1,356,test,5,male,White,,,,new,,,,m,1000,False,False,
1,1,357,test,5,male,Black,,,,new,,,,z,1203,True,False,
1,1,358,test,5,female,White,,,,new,,,,z,1176,True,False,
1,1,359,test,5,female,Black,,,,new,,,,z,1447,True,False,
1,1,360,test,5,male,White,,,,new,,,,z,985,True,False,
2,3,1,study,0,male,Black,female,Black,angry,,,,,z,925,True,False,
2,3,2,study,0,female,Latino,female,Black,neutral,,,,,m,616,True,False,
2,3,3,study,0,male,Asian,male,White,happy,,,,,z,641,True,False,
2,3,4,study,0,female,White,female,Black,angry,,,,,m,759,True,False,
2,3,5,study,0,female,Black,male,Black,neutral,,,,,m,1861,True,False,
2,3,6,study,0,male,Latino,male,Black,angry,,,,,z,658,True,False,
2,3,7,study,0,male,White,male,White,angry,,,,,z,1219,True,False,
2,3,8,study,0,male,White,female,White,angry,,,,,z,626,True,False,
2,3,9,study,0,male,Asian,female,Black,neutral,,,,,z,764,True,False,
2,3,10,study,0,male,Asian,male,Black,angry,,,,,z,1134,True,False,
2,3,11,study,0,male,Asian,male,White,happy,,,,,z,1573,True,False,
2,3,12,study,0,male,Asian,female,Black,happy,,,,,z,444,True,False,
2,3,13,study,0,male,Black,male,White,happy,,,,,z,514,True,False,
2,3,14,study,0,female,Latino,male,White,angry,,,,,m,529,True,False,
2,3,15,study,0,male,Asian,male,White,angry,,,,,z,622,True,False,
2,3,16,study,0,female,White,female,Black,happy,,,,,m,665,True,False,
2,3,17,study,0,male,Latino,male,White,angry,,,,,z,525,True,False,
2,3,18,study,0,female,Asian,female,White,happy,,,,,m,487,True,False,
2,3,19,study,0,male,Black,male,Black,happy,,,,,z,406,True,False,
2,3,20,study,0,female,Black,female,White,angry,,,,,m,963,True,False,
2,3,21,study,0,female,Black,male,Black,happy,,,,,z,2826,False,False,
2,3,22,study,0,female,White,female,White,neutral,,,,,m,671,True,False,
2,3,23,study,0,female,Asian,female,Black,happy,,,,,m,741,True,False,
2,3,24,study,0,female,Latino,female,White,happy,,,,,m,625,True,False,
2,3,25,study,0,female,Black,female,White,angry,,,,,m,866,True,False,
2,3,26,study,0,male,Black,male,Black,angry,,,,,z,756,True,False,
2,3,27,study,0,male,White,female,Black,angry,,,,,z,1739,True,False,
2,3,28,study,0,male,White,female,White,neutral,,,,,z,1034,True,False,
2,3,29,study,0,female,White,male,Black,angry,,,,,m,955,True,False,
2,3,30,study,0,female,Black,male,Black,happy,,,,,m,663,True,False,
2,3,31,study,0,female,Asian,female,White,angry,,,,,m,774,True,False,
2,3,32,study,0,male,Latino,male,White,neutral,,,,,z,1055,True,False,
2,3,33,study,0,female,Black,female,Black,neutral,,,,,m,851,True,False,
2,3,34,study,0,female,Latino,male,White,happy,,,,,m,663,True,False,
2,3,35,study,0,male,Asian,female,White,angry,,,,,z,847,True,False,
2,3,36,study,0,female,Latino,male,Black,happy,,,,,m,652,True,False,
2,3,37,study,0,male,Latino,female,White,neutral,,,,,z,618,True,False,
2,3,38,study,0,male,Asian,male,White,neutral,,,,,z,1549,True,False,
2,3,39,study,0,female,Black,male,Black,neutral,,,,,m,654,True,False,
2,3,40,study,0,female,Asian,female,White,happy,,,,,m,762,True,False,
2,3,41,study,1,male,Black,female,Black,angry,,,,,,,False,True,
2,3,42,study,1,female,Black,male,White,angry,,,,,m,2754,True,False,
2,3,43,study,1,female,Latino,male,White,angry,,,,,m,1875,True,False,
2,3,44,study,1,female,Black,male,Black,angry,,,,,m,1077,True,False,
2,3,45,study,1,male,Black,female,White,happy,,,,,z,1512,True,False,
2,3,46,study,1,female,White,female,Black,happy,,,,,m,1122,True,False,
2,3,47,study,1,male,Black,male,Black,angry,,,,,z,873,True,False,
2,3,48,study,1,female,Black,female,Black,angry,,,,,m,1283,True,False,
2,3,49,study,1,male,White,male,White,happy,,,,,z,930,True,False,
2,3,50,study,1,male,White,female,Black,happy,,,,,z,1438,True,False,
2,3,51,study,1,female,Black,female,White,angry,,,,,m,1286,True,False,
2,3,52,study,1,female,Latino,male,White,neutral,,,,,m,1410,True,False,
2,3,53,study,1,female,Latino,male,Black,happy,,,,,m,885,True,False,
2,3,54,study,1,female,Black,male,Black,happy,,,,,m,2298,True,False,
2,3,55,study,1,male,Black,male,Black,happy,,,,,z,1674,True,False,
2,3,56,study,1,female,Black,male,White,angry,,,,,,,False,True,
2,3,57,study,1,male,White,female,White,neutral,,,,,z,1371,True,False,
2,3,58,study,1,female,Asian,female,White,neutral,,,,,m,1294,True,False,
2,3,59,study,1,male,White,male,White,neutral,,,,,z,1339,True,False,
2,3,60,study,1,male,White,male,Black,angry,,,,,z,1297,True,False,
2,3,61,study,1,male,White,female,Black,neutral,,,,,z,1187,True,False,
2,3,62,study,1,male,Latino,male,Black,neutral,,,,,z,1307,True,False,
2,3,63,study,1,male,White,female,White,neutral,,,,,z,1170,True,False,
2,3,64,study,1,female,Asian,female,White,neutral,,,,,m,1219,True,False,
2,3,65,study,1,female,White,female,Black,neutral,,,,,m,1274,True,False,
2,3,66,study,1,female,Black,male,White,happy,,,,,m,1302,True,False,
2,3,67,study,1,male,Black,male,White,angry,,,,,z,1328,True,False,
2,3,68,study,1,male,Latino,male,Black,neutral,,,,,z,1090,True,False,
2,3,69,study,1,female,Asian,female,White,happy,,,,,m,1608,True,False,
2,3,70,study,1,male,Black,female,Black,angry,,,,,z,1741,True,False,
2,3,71,study,1,female,White,female,Black,happy,,,,,m,1572,True,False,
2,3,72,study,1,female,White,female,White,angry,,,,,m,1886,True,False,
2,3,73,study,1,female,White,male,Black,neutral,,,,,m,1850,True,False,
2,3,74,study,1,male,Latino,female,White,happy,,,,,z,1336,True,False,
2,3,75,study,1,female,Black,female,Black,angry,,,,,m,1531,True,False,
2,3,76,study,1,female,Latino,male,White,neutral,,,,,m,1622,True,False,
2,3,77,study,1,male,White,female,Black,happy,,,,,z,1862,True,False,
2,3,78,study,1,female,Asian,male,Black,neutral,,,,,m,1823,True,False,
2,3,79,study,1,male,White,male,Black,happy,,,,,z,1351,True,False,
2,3,80,study,1,male,White,female,White,happy,,,,,z,1544,True,False,
2,3,81,study,2,female,Latino,male,White,angry,,,,,m,1430,True,False,
2,3,82,study,2,male,Latino,female,White,happy,,,,,z,1387,True,False,
2,3,83,study,2,male,Latino,female,White,angry,,,,,z,1351,True,False,
2,3,84,study,2,male,Black,male,Black,angry,,,,,m,1459,False,False,
2,3,85,study,2,female,Asian,female,White,angry,,,,,m,1467,True,False,
2,3,86,study,2,female,Black,male,Black,neutral,,,,,m,1758,True,False,
2,3,87,study,2,male,Black,female,White,neutral,,,,,z,2047,True,False,
2,3,88,study,2,female,White,female,Black,happy,,,,,m,1555,True,False,
2,3,89,study,2,female,White,male,Black,neutral,,,,,m,2438,True,False,
2,3,90,study,2,female,Black,female,Black,angry,,,,,m,1665,True,False,
2,3,91,study,2,male,White,male,Black,neutral,,,,,z,1540,True,False,
2,3,92,study,2,male,Asian,male,White,happy,,,,,z,2321,True,False,
2,3,93,study,2,female,Latino,female,White,happy,,,,,m,1456,True,False,
2,3,94,study,2,female,Asian,female,Black,neutral,,,,,m,1527,True,False,
2,3,95,study,2,female,White,female,Black,neutral,,,,,m,1489,True,False,
2,3,96,study,2,female,Asian,male,White,happy,,,,,m,1250,True,False,
2,3,97,study,2,female,Asian,male,White,neutral,,,,,m,1142,True,False,
2,3,98,study,2,female,Black,male,White,angry,,,,,m,1929,True,False,
2,3,99,study,2,male,White,male,White,neutral,,,,,z,2711,True,False,
2,3,100,study,2,female,Black,male,White,happy,,,,,m,1632,True,False,
2,3,101,study,2,male,Black,female,Black,happy,,,,,z,2037,True,False,
2,3,102,study,2,male,White,female,Black,neutral,,,,,z,1796,True,False,
2,3,103,study,2,female,Asian,male,Black,happy,,,,,m,1276,True,False,
2,3,104,study,2,male,White,male,Black,neutral,,,,,z,1519,True,False,
2,3,105,study,2,male,Latino,female,Black,neutral,,,,,z,1697,True,False,
2,3,106,study,2,male,White,male,White,happy,,,,,z,1301,True,False,
2,3,107,study,2,female,Asian,female,White,neutral,,,,,m,1625,True,False,
2,3,108,study,2,female,Black,male,Black,angry,,,,,m,1614,True,False,
2,3,109,study,2,male,Latino,female,Black,neutral,,,,,z,1876,True,False,
2,3,110,study,2,male,White,male,Black,neutral,,,,,z,1505,True,False,
2,3,111,study,2,male,White,female,White,angry,,,,,z,1299,True,False,
2,3,112,study,2,male,Latino,female,Black,happy,,,,,z,1572,True,False,
2,3,113,study,2,female,Asian,male,Black,angry,,,,,m,1199,True,False,
2,3,114,study,2,male,White,female,Black,angry,,,,,z,1406,True,False,
2,3,115,study,2,male,Latino,female,Black,happy,,,,,z,1320,True,False,
2,3,116,study,2,male,Asian,male,Black,neutral,,,,,z,1476,True,False,
2,3,117,study,2,female,Latino,male,White,neutral,,,,,m,1342,True,False,
2,3,118,study,2,female,Asian,female,White,neutral,,,,,m,1445,True,False,
2,3,119,study,2,male,White,male,White,happy,,,,,z,1750,True,False,
2,3,120,study,2,male,White,female,Black,angry,,,,,z,1484,True,False,
2,3,121,test,0,female,Latino,,,,,neutral,female,,,,,True,
2,3,122,test,0,female,Asian,,,,,happy,female,,6,2091,,False,6
2,3,123,test,0,female,Black,,,,,angry,female,,4,1366,,False,4
2,3,124,test,0,male,Asian,,,,,happy,male,,4,1265,,False,4
2,3,125,test,0,female,Asian,,,,,happy,female,,3,1625,,False,3
2,3,126,test,0,male,White,,,,,neutral,female,,4,1511,,False,4
2,3,127,test,0,male,Black,,,,,happy,female,,5,1462,,False,5
2,3,128,test,0,male,White,,,,,happy,female,,4,1382,,False,4
2,3,129,test,0,female,White,,,,,angry,female,,4,1344,,False,4
2,3,130,test,0,male,White,,,,,angry,male,,4,1132,,False,4
2,3,131,test,0,male,White,,,,,happy,female,,2,1445,,False,2
2,3,132,test,0,female,White,,,,,happy,female,,4,1461,,False,4
2,3,133,test,0,male,Latino,,,,,neutral,female,,5,1966,,False,5
2,3,134,test,0,female,White,,,,,happy,female,,3,1553,,False,3
2,3,135,test,0,female,White,,,,,happy,female,,3,1741,,False,3
2,3,136,test,0,female,Latino,,,,,angry,male,,6,1617,,False,6
2,3,137,test,0,male,Latino,,,,,neutral,male,,6,1646,,False,6
2,3,138,test,0,male,White,,,,,neutral,male,,7,1329,,False,7
2,3,139,test,0,female,Asian,,,,,angry,female,,6,2694,,False,6
2,3,140,test,0,male,White,,,,,angry,male,,6,1717,,False,6
2,3,141,test,0,female,Black,,,,,neutral,male,,6,1613,,False,6
2,3,142,test,0,male,Latino,,,,,angry,female,,4,1704,,False,4
2,3,143,test,0,female,Black,,,,,angry,male,,4,1478,,False,4
2,3,144,test,0,male,Black,,,,,happy,female,,5,1071,,False,5
2,3,145,test,0,female,White,,,,,neutral,male,,6,1826,,False,6
2,3,146,test,0,male,Asian,,,,,angry,male,,4,1693,,False,4
2,3,147,test,0,female,Black,,,,,neutral,male,,4,1869,,False,4
2,3,148,test,0,female,Black,,,,,happy,male,,4,2148,,False,4
2,3,149,test,0,female,Asian,,,,,happy,male,,4,1940,,False,4
2,3,150,test,0,male,Black,,,,,angry,male,,7,1629,,False,7
2,3,151,test,0,male,White,,,,,happy,male,,6,1469,,False,6
2,3,152,test,0,male,Latino,,,,,happy,female,,6,1703,,False,6
2,3,153,test,0,female,Asian,,,,,neutral,female,,6,1372,,False,6
2,3,154,test,0,male,Latino,,,,,neutral,female,,4,2051,,False,4
2,3,155,test,0,female,Black,,,,,happy,male,,4,2292,,False,4
2,3,156,test,0,male,White,,,,,happy,male,,5,1671,,False,5
2,3,157,test,0,female,Asian,,,,,neutral,male,,5,1974,,False,5
2,3,158,test,0,male,White,,,,,neutral,male,,5,1099,,False,5
2,3,159,test,0,female,White,,,,,angry,female,,6,1827,,False,6
2,3,160,test,0,female,Latino,,,,,neutral,male,,5,2112,,False,5
2,3,161,test,1,male,Black,,,,,angry,female,,4,2656,,False,4
2,3,162,test,1,male,Latino,,,,,neutral,male,,7,2510,,False,7
2,3,163,test,1,female,Asian,,,,,happy,female,,6,2382,,False,6
2,3,164,test,1,male,White,,,,,neutral,female,,4,1949,,False,4
2,3,165,test,1,female,Black,,,,,angry,female,,4,1431,,False,4
2,3,166,test,1,male,Asian,,,,,happy,male,,4,1858,,False,4
2,3,167,test,1,male,Latino,,,,,happy,female,,4,1484,,False,4
2,3,168,test,1,male,White,,,,,neutral,female,,6,1639,,False,6
2,3,169,test,1,female,Black,,,,,angry,female,,6,874,,False,6
2,3,170,test,1,female,Latino,,,,,happy,male,,5,2431,,False,5
2,3,171,test,1,female,Black,,,,,angry,male,,5,1438,,False,5
2,3,172,test,1,male,Asian,,,,,neutral,male,,,,,True,
2,3,173,test,1,female,White,,,,,neutral,female,,4,1694,,False,4
2,3,174,test,1,female,Asian,,,,,neutral,male,,4,1228,,False,4
2,3,175,test,1,female,White,,,,,happy,female,,6,1679,,False,6
2,3,176,test,1,male,Latino,,,,,neutral,male,,7,1431,,False,7
2,3,177,test,1,female,Asian,,,,,neutral,female,,6,1339,,False,6
2,3,178,test,1,female,Latino,,,,,happy,female,,6,1614,,False,6
2,3,179,test,1,male,Latino,,,,,neutral,female,,3,1406,,False,3
2,3,180,test,1,male,Black,,,,,angry,male,,4,1801,,False,4
2,3,181,test,1,male,Black,,,,,happy,male,,4,1721,,False,4
2,3,182,test,1,male,Latino,,,,,happy,female,,6,1558,,False,6
2,3,183,test,1,male,White,,,,,angry,female,,6,1454,,False,6
2,3,184,test,1,female,Latino,,,,,happy,male,,7,1553,,False,7
2,3,185,test,1,female,Asian,,,,,angry,male,,6,1738,,False,6
2,3,186,test,1,female,Asian,,,,,neutral,female,,6,1363,,False,6
2,3,187,test,1,female,Black,,,,,angry,female,,5,2663,,False,5
2,3,188,test,1,male,White,,,,,angry,female,,5,1860,,False,5
2,3,189,test,1,male,White,,,,,neutral,female,,6,1915,,False,6
2,3,190,test,1,male,Asian,,,,,happy,male,,5,1966,,False,5
2,3,191,test,1,male,Black,,,,,angry,male,,4,1918,,False,4
2,3,192,test,1,female,Black,,,,,neutral,female,,6,1188,,False,6
2,3,193,test,1,female,White,,,,,neutral,male,,5,1774,,False,5
2,3,194,test,1,female,Black,,,,,angry,female,,6,1368,,False,6
2,3,195,test,1,female,Latino,,,,,happy,female,,6,1081,,False,6
2,3,196,test,1,female,Latino,,,,,angry,male,,6,1023,,False,6
2,3,197,test,1,female,Latino,,,,,neutral,male,,6,850,,False,6
2,3,198,test,1,male,Black,,,,,angry,female,,6,1187,,False,6
2,3,199,test,1,male,White,,,,,happy,male,,6,1260,,False,6
2,3,200,test,1,male,Black,,,,,angry,female,,7,1187,,False,7
2,3,201,test,2,male,Black,,,,,neutral,female,,5,1536,,False,5
2,3,202,test,2,female,White,,,,,angry,male,,4,1903,,False,4
2,3,203,test,2,male,Asian,,,,,happy,female,,5,1433,,False,5
2,3,204,test,2,male,White,,,,,angry,female,,6,1482,,False,6
2,3,205,test,2,female,Asian,,,,,happy,male,,7,1203,,False,7
2,3,206,test,2,female,Asian,,,,,happy,female,,5,2121,,False,5
2,3,207,test,2,male,White,,,,,happy,female,,5,1729,,False,5
2,3,208,test,2,female,White,,,,,neutral,female,,4,1495,,False,4
2,3,209,test,2,female,Black,,,,,angry,male,,6,1706,,False,6
2,3,210,test,2,female,Latino,,,,,neutral,male,,5,1520,,False,5
2,3,211,test,2,female,White,,,,,neutral,female,,6,1820,,False,6
2,3,212,test,2,female,Black,,,,,happy,male,,6,1776,,False,6
2,3,213,test,2,male,Asian,,,,,neutral,female,,5,1769,,False,5
2,3,214,test,2,male,Black,,,,,happy,male,,5,1878,,False,5
2,3,215,test,2,male,White,,,,,neutral,male,,6,1063,,False,6
2,3,216,test,2,female,Black,,,,,angry,male,,5,2745,,False,5
2,3,217,test,2,female,Black,,,,,neutral,male,,5,1257,,False,5
2,3,218,test,2,female,Black,,,,,angry,male,,6,1358,,False,6
2,3,219,test,2,male,White,,,,,angry,female,,6,1052,,False,6
2,3,220,test,2,female,Black,,,,,angry,female,,6,2043,,False,6
2,3,221,test,2,female,Asian,,,,,neutral,female,,7,1410,,False,7
2,3,222,test,2,female,Asian,,,,,neutral,female,,5,2048,,False,5
2,3,223,test,2,male,Latino,,,,,angry,male,,6,1960,,False,6
2,3,224,test,2,female,Black,,,,,happy,male,,6,2018,,False,6
2,3,225,test,2,male,Asian,,,,,angry,male,,5,1304,,False,5
2,3,226,test,2,male,White,,,,,angry,female,,5,1252,,False,5
2,3,227,test,2,male,White,,,,,neutral,female,,6,1107,,False,6
2,3,228,test,2,male,Black,,,,,happy,male,,5,1494,,False,5
2,3,229,test,2,male,Black,,,,,angry,male,,5,2452,,False,5
2,3,230,test,2,female,Asian,,,,,angry,female,,5,1570,,False,5
2,3,231,test,2,male,White,,,,,neutral,male,,4,1764,,False,4
2,3,232,test,2,male,White,,,,,neutral,male,,5,1872,,False,5
2,3,233,test,2,male,White,,,,,happy,male,,5,2614,,False,5
2,3,234,test,2,male,Asian,,,,,neutral,male,,5,2108,,False,5
2,3,235,test,2,female,Latino,,,,,happy,male,,4,1323,,False,4
2,3,236,test,2,female,Black,,,,,happy,male,,5,2261,,False,5
2,3,237,test,2,male,Latino,,,,,happy,female,,6,2698,,False,6
2,3,238,test,2,male,Latino,,,,,angry,male,,5,1808,,False,5
2,3,239,test,2,male,Asian,,,,,angry,female,,4,1358,,False,4
2,3,240,test,2,female,Latino,,,,,angry,male,,6,2012,,False,6
3,2,1,study,0,female,Asian,female,White,happy,,,,,z,1268,True,False,
3,2,2,study,0,male,Black,male,Black,neutral,,,,,m,1006,True,False,
3,2,3,study,0,male,Asian,female,White,happy,,,,,m,1327,True,False,
3,2,4,study,0,female,White,male,White,angry,,,,,z,1024,True,False,
3,2,5,study,0,male,White,female,Black,happy,,,,,m,1262,True,False,
3,2,6,study,0,female,Black,female,Black,happy,,,,,z,1207,True,False,
3,2,7,study,0,male,Asian,male,Black,neutral,,,,,m,950,True,False,
3,2,8,study,0,female,Asian,male,White,happy,,,,,z,979,True,False,
3,2,9,study,0,male,Asian,male,Black,happy,,,,,m,956,True,False,
3,2,10,study,0,male,White,male,Black,happy,,,,,m,970,True,False,
3,2,11,study,0,male,Latino,male,White,neutral,,,,,m,993,True,False,
3,2,12,study,0,female,Asian,female,White,happy,,,,,z,793,True,False,
3,2,13,study,0,male,White,male,Black,angry,,,,,m,776,True,False,
3,2,14,study,0,female,White,female,Black,happy,,,,,z,1185,True,False,
3,2,15,study,0,female,Latino,female,Black,angry,,,,,z,1437,True,False,
3,2,16,study,0,male,White,male,Black,angry,,,,,m,1015,True,False,
3,2,17,study,0,male,Latino,male,Black,neutral,,,,,m,990,True,False,
3,2,18,study,0,female,Latino,male,Black,neutral,,,,,z,1138,True,False,
3,2,19,study,0,female,Latino,female,Black,neutral,,,,,z,1044,True,False,
3,2,20,study,0,male,Latino,male,Black,angry,,,,,m,1027,True,False,
3,2,21,study,0,male,Black,male,White,happy,,,,,m,1031,True,False,
3,2,22,study,0,female,White,male,Black,happy,,,,,z,859,True,False,
3,2,23,study,0,male,White,female,Black,angry,,,,,m,1303,True,False,
3,2,24,study,0,female,Asian,female,Black,happy,,,,,z,1203,True,False,
3,2,25,study,0,female,Black,male,Black,neutral,,,,,z,765,True,False,
3,2,26,study,0,female,Asian,female,Black,happy,,,,,z,581,True,False,
3,2,27,study,0,female,Latino,female,White,neutral,,,,,z,790,True,False,
3,2,28,study,0,male,White,male,Black,happy,,,,,m,752,True,False,
3,2,29,study,0,female,White,male,White,happy,,,,,z,857,True,False,
3,2,30,study,0,male,Latino,female,Black,happy,,,,,m,1177,True,False,
3,2,31,study,0,female,White,male,White,happy,,,,,z,1153,True,False,
3,2,32,study,0,female,White,female,Black,angry,,,,,z,973,True,False,
3,2,33,study,0,female,Black,male,White,angry,,,,,z,997,True,False,
3,2,34,study,0,female,Black,female,White,happy,,,,,z,863,True,False,
3,2,35,study,0,female,Black,female,Black,neutral,,,,,z,585,True,False,
3,2,36,study,0,male,White,male,Black,happy,,,,,m,737,True,False,
3,2,37,study,0,female,Black,male,Black,angry,,,,,z,1102,True,False,
3,2,38,study,0,female,White,male,Black,happy,,,,,z,918,True,False,
3,2,39,study,0,female,Latino,female,White,angry,,,,,z,842,True,False,
3,2,40,study,0,male,White,female,White,happy,,,,,m,974,True,False,
3,2,41,study,1,male,Black,female,White,angry,,,,,z,881,False,False,
3,2,42,study,1,female,Latino,male,Black,angry,,,,,z,682,True,False,
3,2,43,study,1,male,White,female,White,neutral,,,,,m,948,True,False,
3,2,44,study,1,male,Latino,male,White,angry,,,,,m,1346,True,False,
3,2,45,study,1,female,White,male,Black,happy,,,,,z,1032,True,False,
3,2,46,study,1,male,Asian,female,White,angry,,,,,m,952,True,False,
3,2,47,study,1,female,Black,female,Black,angry,,,,,z,898,True,False,
3,2,48,study,1,male,Latino,female,Black,angry,,,,,m,1024,True,False,
3,2,49,study,1,male,Asian,female,White,neutral,,,,,m,1440,True,False,
3,2,50,study,1,female,Asian,male,White,neutral,,,,,z,1094,True,False,
3,2,51,study,1,male,Asian,female,Black,happy,,,,,m,1749,True,False,
3,2,52,study,1,male,Latino,female,White,neutral,,,,,m,1350,True,False,
3,2,53,study,1,female,Black,female,Black,angry,,,,,z,1063,True,False,
3,2,54,study,1,female,Black,male,White,neutral,,,,,z,893,True,False,
3,2,55,study,1,male,Black,male,White,angry,,,,,m,1152,True,False,
3,2,56,study,1,female,White,female,Black,happy,,,,,z,1128,True,False,
3,2,57,study,1,female,Asian,male,Black,angry,,,,,z,1364,True,False,
3,2,58,study,1,male,Black,female,Black,neutral,,,,,m,1806,True,False,
3,2,59,study,1,female,Black,male,White,angry,,,,,z,810,True,False,
3,2,60,study,1,male,Latino,female,White,neutral,,,,,m,842,True,False,
3,2,61,study,1,male,Black,male,White,angry,,,,,m,1209,True,False,
3,2,62,study,1,female,Asian,male,Black,neutral,,,,,z,1197,True,False,
3,2,63,study,1,female,Latino,female,Black,angry,,,,,z,1696,True,False,
3,2,64,study,1,female,Latino,female,White,angry,,,,,z,2369,True,False,
3,2,65,study,1,male,Asian,female,Black,neutral,,,,,m,1176,True,False,
3,2,66,study,1,male,Latino,female,Black,neutral,,,,,m,1526,True,False,
3,2,67,study,1,male,Latino,male,Black,neutral,,,,,m,1344,True,False,
3,2,68,study,1,male,White,female,Black,happy,,,,,m,1237,True,False,
3,2,69,study,1,female,White,male,White,happy,,,,,z,990,True,False,
3,2,70,study,1,female,Black,male,Black,neutral,,,,,z,934,True,False,
3,2,71,study,1,female,Black,female,White,happy,,,,,z,1048,True,False,
3,2,72,study,1,male,Black,female,Black,angry,,,,,m,1763,True,False,
3,2,73,study,1,female,White,female,White,neutral,,,,,z,1138,True,False,
3,2,74,study,1,male,Black,female,Black,neutral,,,,,m,1033,True,False,
3,2,75,study,1,female,Latino,female,White,neutral,,,,,z,1075,True,False,
3,2,76,study,1,male,Black,female,Black,happy,,,,,m,1398,True,False,
3,2,77,study,1,female,White,male,Black,happy,,,,,z,1485,True,False,
3,2,78,study,1,male,Latino,male,White,neutral,,,,,m,1923,True,False,
3,2,79,study,1,female,Black,male,Black,neutral,,,,,z,1437,True,False,
3,2,80,study,1,female,Asian,male,White,angry,,,,,z,1483,True,False,
3,2,81,study,2,female,Latino,male,White,angry,,,,,z,1046,True,False,
3,2,82,study,2,male,White,male,Black,neutral,,,,,m,912,True,False,
3,2,83,study,2,male,Latino,female,Black,angry,,,,,m,1251,True,False,
3,2,84,study,2,female,Latino,female,Black,neutral,,,,,z,1614,True,False,
3,2,85,study,2,male,Latino,male,Black,angry,,,,,m,1058,True,False,
3,2,86,study,2,female,White,male,Black,neutral,,,,,z,1069,True,False,
3,2,87,study,2,male,Asian,male,White,angry,,,,,m,892,True,False,
3,2,88,study,2,female,Latino,female,White,neutral,,,,,z,879,True,False,
3,2,89,study,2,female,Black,male,Black,happy,,,,,z,1065,True,False,
3,2,90,study,2,male,Asian,male,Black,angry,,,,,m,1431,True,False,
3,2,91,study,2,female,Latino,male,Black,neutral,,,,,z,869,True,False,
3,2,92,study,2,male,White,female,White,angry,,,,,m,1801,True,False,
3,2,93,study,2,male,White,female,Black,happy,,,,,m,1039,True,False,
3,2,94,study,2,male,Asian,female,White,happy,,,,,m,1046,True,False,
3,2,95,study,2,female,Black,male,White,neutral,,,,,z,1454,True,False,
3,2,96,study,2,female,Latino,female,Black,neutral,,,,,z,982,True,False,
3,2,97,study,2,male,Black,female,Black,angry,,,,,m,1314,True,False,
3,2,98,study,2,female,White,female,White,neutral,,,,,z,1328,True,False,
3,2,99,study,2,female,Asian,female,White,neutral,,,,,z,1142,True,False,
3,2,100,study,2,male,Black,female,White,happy,,,,,m,936,True,False,
3,2,101,study,2,male,White,female,White,angry,,,,,m,1320,True,False,
3,2,102,study,2,male,Asian,female,White,angry,,,,,m,1413,True,False,
3,2,103,study,2,female,Latino,male,Black,happy,,,,,z,1639,True,False,
3,2,104,study,2,female,White,male,Black,angry,,,,,z,768,True,False,
3,2,105,study,2,male,White,female,Black,neutral,,,,,m,1113,True,False,
3,2,106,study,2,male,Asian,male,Black,happy,,,,,m,976,True,False,
3,2,107,study,2,male,Black,male,Black,neutral,,,,,m,933,True,False,
3,2,108,study,2,male,Latino,male,White,happy,,,,,z,1343,False,False,
3,2,109,study,2,female,Latino,female,Black,happy,,,,,z,721,True,False,
3,2,110,study,2,male,Black,male,White,happy,,,,,z,1232,False,False,
3,2,111,study,2,female,Black,female,Black,angry,,,,,z,1103,True,False,
3,2,112,study,2,male,Asian,male,Black,neutral,,,,,m,1141,True,False,
3,2,113,study,2,male,White,male,White,angry,,,,,m,775,True,False,
3,2,114,study,2,female,White,female,White,angry,,,,,z,1502,True,False,
3,2,115,study,2,male,Black,male,Black,neutral,,,,,m,681,True,False,
3,2,116,study,2,female,Black,male,Black,angry,,,,,z,804,True,False,
3,2,117,study,2,female,Black,female,White,angry,,,,,z,1185,True,False,
3,2,118,study,2,male,Latino,female,White,neutral,,,,,m,1275,True,False,
3,2,119,study,2,male,Latino,male,Black,happy,,,,,m,801,True,False,
3,2,120,study,2,male,White,male,Black,happy,,,,,m,886,True,False,
3,2,121,test,0,male,White,male,Black,angry,,,,intact,m,1743,False,False,
3,2,122,test,0,female,White,male,White,angry,,,,intact,m,1833,False,False,
3,2,123,test,0,male,Black,male,Black,neutral,,,,intact,z,1914,True,False,
3,2,124,test,0,female,White,male,Black,angry,,,,rearranged,m,664,True,False,
3,2,125,test,0,female,Asian,female,White,happy,,,,intact,z,1035,True,False,
3,2,126,test,0,male,Asian,male,Black,happy,,,,intact,m,1371,False,False,
3,2,127,test,0,male,Latino,female,White,neutral,,,,intact,m,1234,False,False,
3,2,128,test,0,male,Latino,female,Black,neutral,,,,rearranged,z,1204,False,False,
3,2,129,test,0,male,White,female,Black,happy,,,,intact,m,1312,False,False,
3,2,130,test,0,male,Asian,female,Black,neutral,,,,intact,z,1408,True,False,
3,2,131,test,0,male,Latino,male,Black,neutral,,,,intact,z,1295,True,False,
3,2,132,test,0,female,Latino,female,Black,angry,,,,rearranged,m,1518,True,False,
3,2,133,test,0,female,Asian,male,Black,angry,,,,intact,z,1220,True,False,
3,2,134,test,0,female,White,male,Black,happy,,,,rearranged,z,1286,False,False,
3,2,135,test,0,female,White,male,White,happy,,,,intact,m,1080,False,False,
3,2,136,test,0,female,Black,male,White,angry,,,,intact,z,769,True,False,
3,2,137,test,0,male,Black,female,White,neutral,,,,rearranged,m,1108,True,False,
3,2,138,test,0,female,White,female,White,neutral,,,,intact,m,1352,False,False,
3,2,139,test,0,female,Asian,female,White,neutral,,,,rearranged,m,1377,True,False,
3,2,140,test,0,male,Black,male,Black,angry,,,,rearranged,z,1194,False,False,
3,2,141,test,0,male,Asian,female,White,happy,,,,rearranged,z,1376,False,False,
3,2,142,test,0,male,Black,male,Black,happy,,,,rearranged,z,1600,False,False,
3,2,143,test,0,male,Latino,male,Black,neutral,,,,rearranged,m,1379,True,False,
3,2,144,test,0,female,Asian,male,White,neutral,,,,rearranged,z,2308,False,False,
3,2,145,test,0,female,White,female,White,angry,,,,rearranged,z,1491,False,False,
3,2,146,test,0,female,Latino,female,White,angry,,,,intact,m,1122,False,False,
3,2,147,test,0,female,Latino,female,Black,neutral,,,,rearranged,m,1281,True,False,
3,2,148,test,0,female,Latino,female,White,happy,,,,rearranged,m,2599,True,False,
3,2,149,test,0,female,White,male,Black,happy,,,,intact,z,983,True,False,
3,2,150,test,0,female,Black,female,White,angry,,,,rearranged,m,1489,True,False,
3,2,151,test,0,male,Latino,female,White,angry,,,,rearranged,m,1092,True,False,
3,2,152,test,0,female,Latino,female,White,neutral,,,,rearranged,m,2000,True,False,
3,2,153,test,0,female,Latino,male,White,angry,,,,rearranged,z,929,False,False,
3,2,154,test,0,male,Latino,male,Black,angry,,,,intact,z,1187,True,False,
3,2,155,test,0,female,Black,female,Black,angry,,,,intact,z,2776,True,False,
3,2,156,test,0,female,Asian,male,White,happy,,,,rearranged,z,2033,False,False,
3,2,157,test,0,male,Latino,female,Black,angry,,,,intact,z,1234,True,False,
3,2,158,test,0,female,Black,female,Black,happy,,,,rearranged,m,1679,True,False,
3,2,159,test,0,female,White,female,Black,happy,,,,intact,m,2022,False,False,
3,2,160,test,0,female,Black,female,White,happy,,,,rearranged,m,2484,True,False,
3,2,161,test,1,female,Black,female,Black,angry,,,,intact,m,1761,False,False,
3,2,162,test,1,male,Asian,male,Black,neutral,,,,rearranged,z,1791,False,False,
3,2,163,test,1,female,Latino,female,White,neutral,,,,rearranged,m,1775,True,False,
3,2,164,test,1,female,White,male,Black,happy,,,,intact,m,2247,False,False,
3,2,165,test,1,female,Latino,male,Black,neutral,,,,intact,,,False,True,
3,2,166,test,1,female,Asian,female,Black,happy,,,,rearranged,m,1432,True,False,
3,2,167,test,1,female,White,female,Black,happy,,,,intact,z,1040,True,False,
3,2,168,test,1,male,Asian,male,Black,angry,,,,intact,z,961,True,False,
3,2,169,test,1,female,Latino,female,Black,neutral,,,,rearranged,m,1077,True,False,
3,2,170,test,1,male,White,female,Black,angry,,,,rearranged,z,1526,False,False,
3,2,171,test,1,female,Black,male,Black,happy,,,,rearranged,m,1861,True,False,
3,2,172,test,1,female,Latino,female,White,neutral,,,,intact,z,1288,True,False,
3,2,173,test,1,female,Black,male,Black,neutral,,,,intact,z,982,True,False,
3,2,174,test,1,male,White,female,Black,neutral,,,,rearranged,m,2112,True,False,
3,2,175,test,1,male,Asian,female,Black,angry,,,,rearranged,z,996,False,False,
3,2,176,test,1,female,Asian,male,White,angry,,,,intact,z,1271,True,False,
3,2,177,test,1,male,Black,male,White,angry,,,,rearranged,z,1481,False,False,
3,2,178,test,1,male,Latino,male,Black,neutral,,,,intact,m,1475,False,False,
3,2,179,test,1,male,Latino,male,White,angry,,,,rearranged,z,1357,False,False,
3,2,180,test,1,male,Black,female,White,happy,,,,rearranged,z,1277,False,False,
3,2,181,test,1,female,Black,male,White,angry,,,,rearranged,z,1789,False,False,
3,2,182,test,1,male,Asian,female,White,neutral,,,,intact,m,824,False,False,
3,2,183,test,1,female,Black,female,Black,angry,,,,rearranged,z,1017,False,False,
3,2,184,test,1,male,White,male,White,angry,,,,intact,z,1255,True,False,
3,2,185,test,1,female,Latino,male,White,neutral,,,,rearranged,m,933,True,False,
3,2,186,test,1,male,Black,male,White,neutral,,,,rearranged,z,1102,False,False,
3,2,187,test,1,male,Black,female,Black,angry,,,,intact,z,1534,True,False,
3,2,188,test,1,female,White,male,Black,neutral,,,,rearranged,m,1166,True,False,
3,2,189,test,1,male,White,female,Black,happy,,,,intact,z,1565,True,False,
3,2,190,test,1,male,Black,female,Black,neutral,,,,intact,m,1418,False,False,
3,2,191,test,1,male,Asian,male,Black,happy,,,,intact,m,1266,False,False,
3,2,192,test,1,male,White,male,Black,happy,,,,rearranged,z,1000,False,False,
3,2,193,test,1,female,Black,male,Black,angry,,,,intact,z,1481,True,False,
3,2,194,test,1,female,Latino,female,Black,neutral,,,,intact,m,1891,False,False,
3,2,195,test,1,male,Black,male,Black,happy,,,,rearranged,z,740,False,False,
3,2,196,test,1,male,White,female,Black,happy,,,,rearranged,m,1422,True,False,
3,2,197,test,1,female,Asian,male,Black,neutral,,,,rearranged,m,1422,True,False,
3,2,198,test,1,male,Black,female,White,angry,,,,rearranged,z,1188,False,False,
3,2,199,test,1,male,White,male,White,happy,,,,rearranged,z,812,False,False,
3,2,200,test,1,male,White,male,Black,happy,,,,intact,m,1863,False,False,
3,2,201,test,2,female,Black,female,White,happy,,,,rearranged,z,1679,False,False,
3,2,202,test,2,female,White,male,White,happy,,,,rearranged,z,1602,False,False,
3,2,203,test,2,male,Black,female,Black,angry,,,,intact,z,1675,True,False,
3,2,204,test,2,female,Latino,female,Black,angry,,,,intact,z,998,True,False,
3,2,205,test,2,male,White,male,Black,angry,,,,intact,z,1660,True,False,
3,2,206,test,2,male,Asian,female,White,happy,,,,intact,m,1386,False,False,
3,2,207,test,2,female,Asian,female,Black,happy,,,,intact,m,1804,False,False,
3,2,208,test,2,male,Latino,male,White,angry,,,,rearranged,z,1205,False,False,
3,2,209,test,2,female,Black,male,Black,neutral,,,,rearranged,z,1421,False,False,
3,2,210,test,2,male,White,female,White,neutral,,,,rearranged,z,1283,False,False,
3,2,211,test,2,male,Latino,male,White,neutral,,,,intact,z,1895,True,False,
3,2,212,test,2,male,White,male,Black,neutral,,,,rearranged,m,2401,True,False,
3,2,213,test,2,male,Asian,male,White,angry,,,,rearranged,z,1924,False,False,
3,2,214,test,2,male,White,female,Black,happy,,,,intact,m,1150,False,False,
3,2,215,test,2,female,Latino,male,Black,happy,,,,intact,m,1722,False,False,
3,2,216,test,2,male,Latino,female,Black,happy,,,,rearranged,m,1672,True,False,
3,2,217,test,2,male,Latino,male,White,happy,,,,intact,z,883,True,False,
3,2,218,test,2,male,White,female,White,angry,,,,rearranged,z,912,False,False,
3,2,219,test,2,female,Asian,female,Black,happy,,,,intact,m,1615,False,False,
3,2,220,test,2,male,Asian,female,White,angry,,,,intact,z,814,True,False,
3,2,221,test,2,male,Latino,female,White,neutral,,,,rearranged,z,1878,False,False,
3,2,222,test,2,male,Asian,male,Black,neutral,,,,intact,z,1719,True,False,
3,2,223,test,2,male,Latino,female,Black,neutral,,,,intact,m,2023,False,False,
3,2,224,test,2,female,Latino,male,Black,angry,,,,rearranged,z,2406,False,False,
3,2,225,test,2,female,Black,male,Black,neutral,,,,intact,m,1792,False,False,
3,2,226,test,2,male,Asian,female,White,happy,,,,intact,z,1850,True,False,
3,2,227,test,2,female,White,female,White,neutral,,,,intact,z,892,True,False,
3,2,228,test,2,female,Black,male,Black,neutral,,,,intact,z,2532,True,False,
3,2,229,test,2,male,White,male,Black,happy,,,,intact,z,1793,True,False,
3,2,230,test,2,female,Black,male,White,neutral,,,,intact,m,1985,False,False,
3,2,231,test,2,male,White,female,White,angry,,,,intact,z,1086,True,False,
3,2,232,test,2,female,White,male,Black,happy,,,,rearranged,m,1428,True,False,
3,2,233,test,2,female,Black,male,Black,angry,,,,rearranged,z,1387,False,False,
3,2,234,test,2,male,Latino,male,White,happy,,,,rearranged,m,1681,True,False,
3,2,235,test,2,female,White,male,White,happy,,,,intact,z,867,True,False,
3,2,236,test,2,male,Black,male,Black,neutral,,,,rearranged,z,1692,False,False,
3,2,237,test,2,female,White,female,Black,angry,,,,intact,m,1514,False,False,
3,2,238,test,2,female,Latino,female,White,angry,,,,rearranged,z,1459,False,False,
3,2,239,test,2,female,Black,female,Black,neutral,,,,intact,z,1502,True,False,
3,2,240,test,2,male,Black,female,Black,happy,,,,rearranged,z,2173,False,False,
4,3,1,study,0,male,Latino,male,White,neutral,,,,,z,792,True,False,
4,3,2,study,0,female,Asian,female,Black,neutral,,,,,m,965,True,False,
4,3,3,study,0,female,Latino,female,Black,neutral,,,,,m,727,True,False,
4,3,4,study,0,male,Black,female,Black,angry,,,,,z,473,True,False,
4,3,5,study,0,female,White,male,White,happy,,,,,m,2035,True,False,
4,3,6,study,0,female,Asian,female,White,happy,,,,,m,1403,True,False,
4,3,7,study,0,male,Black,male,White,happy,,,,,z,2014,True,False,
4,3,8,study,0,male,Asian,female,Black,angry,,,,,z,1974,True,False,
4,3,9,study,0,male,Asian,male,Black,happy,,,,,z,1409,True,False,
4,3,10,study,0,male,Asian,male,Black,angry,,,,,z,1299,True,False,
4,3,11,study,0,female,Latino,female,Black,angry,,,,,m,2935,True,False,
4,3,12,study,0,male,Black,female,White,happy,,,,,z,982,True,False,
4,3,13,study,0,female,White,male,White,neutral,,,,,m,1299,True,False,
4,3,14,study,0,male,Asian,female,White,angry,,,,,z,763,True,False,
4,3,15,study,0,male,Latino,male,Black,neutral,,,,,z,2969,True,False,
4,3,16,study,0,female,Latino,male,Black,neutral,,,,,m,2367,True,False,
4,3,17,study,0,male,White,female,Black,angry,,,,,z,1302,True,False,
4,3,18,study,0,male,Asian,female,White,angry,,,,,z,945,True,False,
4,3,19,study,0,female,Latino,female,White,neutral,,,,,m,944,True,False,
4,3,20,study,0,male,Latino,male,Black,neutral,,,,,z,902,True,False,
4,3,21,study,0,female,White,male,Black,neutral,,,,,m,1006,True,False,
4,3,22,study,0,male,Asian,female,White,neutral,,,,,z,978,True,False,
4,3,23,study,0,female,White,female,Black,happy,,,,,m,1676,True,False,
4,3,24,study,0,female,Latino,female,White,neutral,,,,,m,834,True,False,
4,3,25,study,0,female,Asian,female,White,angry,,,,,m,1033,True,False,
4,3,26,study,0,female,Asian,female,Black,happy,,,,,m,826,True,False,
4,3,27,study,0,female,Asian,female,Black,neutral,,,,,m,1646,True,False,
4,3,28,study,0,male,White,female,White,angry,,,,,z,695,True,False,
4,3,29,study,0,male,Asian,male,White,angry,,,,,z,1509,True,False,
4,3,30,study,0,male,Asian,male,White,happy,,,,,z,538,True,False,
4,3,31,study,0,female,Latino,female,White,happy,,,,,m,840,True,False,
4,3,32,study,0,male,Black,female,Black,neutral,,,,,z,917,True,False,
4,3,33,study,0,female,White,male,Black,happy,,,,,m,1624,True,False,
4,3,34,study,0,male,Latino,male,White,neutral,,,,,z,759,True,False,
4,3,35,study,0,male,White,male,Black,angry,,,,,z,659,True,False,
4,3,36,study,0,male,Latino,female,White,happy,,,,,z,1681,True,False,
4,3,37,study,0,female,Latino,female,White,angry,,,,,m,2207,True,False,
4,3,38,study,0,female,Asian,male,Black,angry,,,,,m,2288,True,False,
4,3,39,study,0,female,Asian,male,White,neutral,,,,,m,1070,True,False,
4,3,40,study,0,female,Asian,female,White,angry,,,,,m,951,True,False,
4,3,41,study,1,female,Latino,female,White,neutral,,,,,m,1413,True,False,
4,3,42,study,1,female,White,female,Black,happy,,,,,m,2465,True,False,
4,3,43,study,1,female,Black,male,Black,neutral,,,,,m,2601,True,False,
4,3,44,study,1,female,Black,male,Black,happy,,,,,,,False,True,
4,3,45,study,1,male,White,female,White,happy,,,,,z,1910,True,False,
4,3,46,study,1,male,Latino,female,White,happy,,,,,z,1430,True,False,
4,3,47,study,1,male,Asian,female,White,happy,,,,,z,841,True,False,
4,3,48,study,1,female,White,female,Black,happy,,,,,m,1288,True,False,
4,3,49,study,1,female,Black,male,White,neutral,,,,,m,1512,True,False,
4,3,50,study,1,female,Latino,female,Black,angry,,,,,m,1652,True,False,
4,3,51,study,1,female,Asian,male,Black,angry,,,,,,,False,True,
4,3,52,study,1,male,White,female,White,neutral,,,,,z,1835,True,False,
4,3,53,study,1,male,Asian,male,Black,happy,,,,,z,1035,True,False,
4,3,54,study,1,male,White,male,Black,angry,,,,,z,882,True,False,
4,3,55,study,1,male,Latino,female,Black,neutral,,,,,z,1746,True,False,
4,3,56,study,1,female,Asian,male,Black,happy,,,,,m,2192,True,False,
4,3,57,study,1,female,White,female,Black,angry,,,,,m,1775,True,False,
4,3,58,study,1,female,White,female,White,neutral,,,,,m,1571,True,False,
4,3,59,study,1,male,Black,female,Black,neutral,,,,,z,1350,True,False,
4,3,60,study,1,male,Latino,male,Black,neutral,,,,,z,1490,True,False,
4,3,61,study,1,male,Asian,male,Black,happy,,,,,z,1450,True,False,
4,3,62,study,1,female,Asian,male,Black,angry,,,,,m,1651,True,False,
4,3,63,study,1,female,Asian,female,White,angry,,,,,m,1235,True,False,
4,3,64,study,1,male,White,female,Black,neutral,,,,,z,1925,True,False,
4,3,65,study,1,male,Asian,male,White,angry,,,,,z,1219,True,False,
4,3,66,study,1,female,Black,male,Black,happy,,,,,m,2271,True,False,
4,3,67,study,1,female,Black,male,Black,neutral,,,,,m,2247,True,False,
4,3,68,study,1,female,Asian,male,Black,neutral,,,,,m,2850,True,False,
4,3,69,study,1,female,Asian,female,White,neutral,,,,,m,1725,True,False,
4,3,70,study,1,female,White,female,White,happy,,,,,m,1844,True,False,
4,3,71,study,1,female,Black,male,White,happy,,,,,m,1086,True,False,
4,3,72,study,1,male,Latino,male,White,happy,,,,,z,1714,True,False,
4,3,73,study,1,male,Asian,male,Black,angry,,,,,z,1686,True,False,
4,3,74,study,1,male,Black,female,Black,angry,,,,,z,938,True,False,
4,3,75,study,1,male,White,male,White,neutral,,,,,z,1264,True,False,
4,3,76,study,1,female,White,male,Black,angry,,,,,m,909,True,False,
4,3,77,study,1,male,Asian,female,Black,neutral,,,,,z,757,True,False,
4,3,78,study,1,female,Black,male,White,neutral,,,,,m,1811,True,False,
4,3,79,study,1,male,Black,male,Black,neutral,,,,,z,1360,True,False,
4,3,80,study,1,female,Latino,male,White,happy,,,,,m,1356,True,False,
4,3,81,study,2,female,Black,female,White,angry,,,,,m,1201,True,False,
4,3,82,study,2,female,Black,female,White,neutral,,,,,m,1426,True,False,
4,3,83,study,2,male,Latino,male,White,angry,,,,,z,1189,True,False,
4,3,84,study,2,female,Asian,male,White,angry,,,,,m,1185,True,False,
4,3,85,study,2,male,Latino,female,White,happy,,,,,z,1914,True,False,
4,3,86,study,2,female,White,female,Black,neutral,,,,,m,1495,True,False,
4,3,87,study,2,male,Black,female,Black,happy,,,,,z,1316,True,False,
4,3,88,study,2,female,Black,male,Black,angry,,,,,m,1253,True,False,
4,3,89,study,2,male,Latino,male,White,happy,,,,,z,800,True,False,
4,3,90,study,2,female,Black,male,White,angry,,,,,m,1485,True,False,
4,3,91,study,2,female,Latino,female,Black,angry,,,,,m,1258,True,False,
4,3,92,study,2,male,Black,female,White,neutral,,,,,z,1971,True,False,
4,3,93,study,2,female,Latino,male,Black,happy,,,,,m,1272,True,False,
4,3,94,study,2,male,White,male,Black,angry,,,,,z,1339,True,False,
4,3,95,study,2,male,Black,male,White,neutral,,,,,z,805,True,False,
4,3,96,study,2,male,Black,male,Black,happy,,,,,z,1008,True,False,
4,3,97,study,2,male,White,female,White,angry,,,,,z,1230,True,False,
4,3,98,study,2,female,Black,male,White,happy,,,,,m,1708,True,False,
4,3,99,study,2,male,Black,male,White,happy,,,,,z,868,True,False,
4,3,100,study,2,female,Black,female,Black,happy,,,,,m,1171,True,False,
4,3,101,study,2,male,White,female,White,neutral,,,,,z,1301,True,False,
4,3,102,study,2,male,Black,female,Black,neutral,,,,,z,1595,True,False,
4,3,103,study,2,male,Black,female,Black,happy,,,,,z,1207,True,False,
4,3,104,study,2,male,Black,male,White,neutral,,,,,z,1392,True,False,
4,3,105,study,2,female,Black,female,Black,angry,,,,,m,1494,True,False,
4,3,106,study,2,female,Asian,male,White,angry,,,,,m,2417,True,False,
4,3,107,study,2,male,Asian,male,White,angry,,,,,z,1238,True,False,
4,3,108,study,2,female,White,male,Black,angry,,,,,m,2090,True,False,
4,3,109,study,2,female,Black,female,Black,happy,,,,,m,1966,True,False,
4,3,110,study,2,female,Black,male,Black,angry,,,,,m,1228,True,False,
4,3,111,study,2,female,Black,male,White,neutral,,,,,m,844,True,False,
4,3,112,study,2,male,White,male,Black,neutral,,,,,z,1447,True,False,
4,3,113,study,2,male,Black,male,White,happy,,,,,z,987,True,False,
4,3,114,study,2,female,White,male,Black,happy,,,,,m,1739,True,False,
4,3,115,study,2,male,White,female,Black,angry,,,,,z,875,True,False,
4,3,116,study,2,male,White,male,Black,angry,,,,,z,1047,True,False,
4,3,117,study,2,male,White,female,White,angry,,,,,z,1188,True,False,
4,3,118,study,2,female,Asian,female,Black,happy,,,,,m,1415,True,False,
4,3,119,study,2,male,White,female,Black,happy,,,,,z,849,True,False,
4,3,120,study,2,male,Latino,female,Black,happy,,,,,z,845,True,False,
4,3,121,test,0,male,Asian,,,,,angry,female,,8,2258,,False,8
4,3,122,test,0,male,Black,,,,,happy,male,,,,,True,
4,3,123,test,0,female,Latino,,,,,neutral,female,,3,2016,,False,3
4,3,124,test,0,female,Latino,,,,,happy,female,,5,1702,,False,5
4,3,125,test,0,male,White,,,,,neutral,male,,5,1033,,False,5
4,3,126,test,0,female,Asian,,,,,happy,female,,5,1490,,False,5
4,3,127,test,0,male,Asian,,,,,happy,male,,5,1260,,False,5
4,3,128,test,0,female,White,,,,,angry,female,,6,1147,,False,6
4,3,129,test,0,female,Latino,,,,,happy,male,,4,1554,,False,4
4,3,130,test,0,female,Latino,,,,,happy,male,,5,1177,,False,5
4,3,131,test,0,male,Black,,,,,neutral,male,,5,1372,,False,5
4,3,132,test,0,male,Latino,,,,,neutral,male,,4,1884,,False,4
4,3,133,test,0,male,Black,,,,,happy,male,,4,1079,,False,4
4,3,134,test,0,female,Asian,,,,,neutral,female,,5,1502,,False,5
4,3,135,test,0,male,Latino,,,,,happy,male,,6,1468,,False,6
4,3,136,test,0,female,Black,,,,,neutral,male,,5,1787,,False,5
4,3,137,test,0,female,Black,,,,,happy,female,,5,1293,,False,5
4,3,138,test,0,female,Black,,,,,neutral,male,,5,2647,,False,5
4,3,139,test,0,female,Asian,,,,,angry,female,,4,1875,,False,4
4,3,140,test,0,female,Latino,,,,,angry,female,,4,934,,False,4
4,3,141,test,0,male,White,,,,,angry,female,,6,2052,,False,6
4,3,142,test,0,male,Black,,,,,neutral,male,,6,1291,,False,6
4,3,143,test,0,male,Latino,,,,,happy,male,,4,2261,,False,4
4,3,144,test,0,male,White,,,,,angry,male,,6,1412,,False,6
4,3,145,test,0,female,Latino,,,,,angry,female,,4,1736,,False,4
4,3,146,test,0,male,Black,,,,,neutral,female,,4,2368,,False,4
4,3,147,test,0,male,Black,,,,,neutral,female,,6,2679,,False,6
4,3,148,test,0,female,Asian,,,,,angry,female,,7,1702,,False,7
4,3,149,test,0,male,Latino,,,,,neutral,female,,5,1226,,False,5
4,3,150,test,0,female,Asian,,,,,angry,male,,6,2510,,False,6
4,3,151,test,0,male,Black,,,,,happy,male,,5,2667,,False,5
4,3,152,test,0,female,Latino,,,,,angry,female,,4,2509,,False,4
4,3,153,test,0,male,White,,,,,angry,female,,5,1360,,False,5
4,3,154,test,0,male,Latino,,,,,happy,female,,6,1283,,False,6
4,3,155,test,0,female,Black,,,,,neutral,male,,4,1852,,False,4
4,3,156,test,0,female,Asian,,,,,angry,male,,5,2352,,False,5
4,3,157,test,0,female,Black,,,,,happy,male,,4,1642,,False,4
4,3,158,test,0,female,Asian,,,,,angry,male,,5,1382,,False,5
4,3,159,test,0,male,Asian,,,,,angry,female,,5,2003,,False,5
4,3,160,test,0,female,White,,,,,neutral,female,,4,2022,,False,4
4,3,161,test,1,female,Black,,,,,happy,male,,2,1637,,False,2
4,3,162,test,1,female,Asian,,,,,neutral,female,,5,1529,,False,5
4,3,163,test,1,male,Black,,,,,neutral,male,,5,1472,,False,5
4,3,164,test,1,female,Asian,,,,,angry,male,,5,1529,,False,5
4,3,165,test,1,male,White,,,,,angry,female,,5,2119,,False,5
4,3,166,test,1,female,Asian,,,,,happy,female,,5,1798,,False,5
4,3,167,test,1,male,Latino,,,,,neutral,male,,6,1349,,False,6
4,3,168,test,1,female,Black,,,,,angry,female,,6,1109,,False,6
4,3,169,test,1,male,Latino,,,,,neutral,male,,6,1408,,False,6
4,3,170,test,1,male,Black,,,,,neutral,female,,5,1066,,False,5
4,3,171,test,1,female,Asian,,,,,angry,male,,6,1313,,False,6
4,3,172,test,1,female,Asian,,,,,happy,male,,5,2079,,False,5
4,3,173,test,1,male,Latino,,,,,neutral,male,,4,2207,,False,4
4,3,174,test,1,male,Black,,,,,happy,female,,5,1529,,False,5
4,3,175,test,1,male,Black,,,,,happy,female,,4,1676,,False,4
4,3,176,test,1,male,Black,,,,,neutral,female,,4,936,,False,4
4,3,177,test,1,female,Asian,,,,,neutral,male,,5,1940,,False,5
4,3,178,test,1,female,White,,,,,happy,male,,4,1936,,False,4
4,3,179,test,1,male,White,,,,,neutral,male,,5,1292,,False,5
4,3,180,test,1,male,Asian,,,,,happy,male,,5,1083,,False,5
4,3,181,test,1,female,Black,,,,,happy,male,,5,1673,,False,5
4,3,182,test,1,female,White,,,,,angry,male,,4,1523,,False,4
4,3,183,test,1,male,White,,,,,happy,female,,5,939,,False,5
4,3,184,test,1,female,Black,,,,,neutral,female,,5,1851,,False,5
4,3,185,test,1,male,Latino,,,,,happy,female,,5,1614,,False,5
4,3,186,test,1,male,White,,,,,neutral,female,,6,1150,,False,6
4,3,187,test,1,male,Latino,,,,,neutral,male,,7,1218,,False,7
4,3,188,test,1,female,Asian,,,,,happy,female,,5,969,,False,5
4,3,189,test,1,male,White,,,,,angry,male,,5,1902,,False,5
4,3,190,test,1,male,Black,,,,,happy,female,,6,2618,,False,6
4,3,191,test,1,male,Asian,,,,,angry,male,,6,1314,,False,6
4,3,192,test,1,male,Asian,,,,,happy,male,,5,826,,False,5
4,3,193,test,1,male,White,,,,,happy,female,,5,2173,,False,5
4,3,194,test,1,male,White,,,,,angry,female,,5,1848,,False,5
4,3,195,test,1,female,Black,,,,,happy,male,,6,1632,,False,6
4,3,196,test,1,male,White,,,,,angry,female,,5,910,,False,5
4,3,197,test,1,male,Asian,,,,,neutral,female,,5,1730,,False,5
4,3,198,test,1,female,Black,,,,,neutral,male,,7,2108,,False,7
4,3,199,test,1,female,Black,,,,,angry,male,,3,1782,,False,3
4,3,200,test,1,female,Asian,,,,,neutral,female,,4,2594,,False,4
4,3,201,test,2,female,White,,,,,happy,female,,5,1883,,False,5
4,3,202,test,2,male,Asian,,,,,angry,male,,6,1904,,False,6
4,3,203,test,2,male,Asian,,,,,angry,male,,6,1025,,False,6
4,3,204,test,2,male,Asian,,,,,angry,female,,5,1851,,False,5
4,3,205,test,2,male,White,,,,,neutral,female,,5,1140,,False,5
4,3,206,test,2,female,White,,,,,happy,female,,6,1643,,False,6
4,3,207,test,2,male,Black,,,,,angry,female,,7,1328,,False,7
4,3,208,test,2,female,Latino,,,,,angry,female,,5,1822,,False,5
4,3,209,test,2,male,Latino,,,,,happy,female,,5,1162,,False,5
4,3,210,test,2,female,White,,,,,angry,male,,4,2282,,False,4
4,3,211,test,2,male,White,,,,,angry,male,,3,1744,,False,3
4,3,212,test,2,male,Asian,,,,,neutral,female,,6,1755,,False,6
4,3,213,test,2,female,Latino,,,,,neutral,female,,5,846,,False,5
4,3,214,test,2,male,Asian,,,,,happy,male,,5,1061,,False,5
4,3,215,test,2,male,Latino,,,,,happy,female,,6,1178,,False,6
4,3,216,test,2,female,White,,,,,neutral,male,,5,1844,,False,5
4,3,217,test,2,male,Latino,,,,,angry,male,,4,1529,,False,4
4,3,218,test,2,male,Asian,,,,,happy,female,,5,1853,,False,5
4,3,219,test,2,female,Latino,,,,,neutral,female,,4,1524,,False,4
4,3,220,test,2,male,White,,,,,angry,male,,4,2055,,False,4
4,3,221,test,2,female,Black,,,,,happy,female,,4,2480,,False,4
4,3,222,test,2,female,Asian,,,,,angry,female,,5,2348,,False,5
4,3,223,test,2,female,White,,,,,neutral,female,,7,1560,,False,7
4,3,224,test,2,male,Black,,,,,angry,female,,5,1427,,False,5
4,3,225,test,2,male,Asian,,,,,angry,male,,6,1474,,False,6
4,3,226,test,2,female,White,,,,,happy,male,,5,1526,,False,5
4,3,227,test,2,male,Asian,,,,,angry,male,,5,1406,,False,5
4,3,228,test,2,female,White,,,,,neutral,male,,4,1381,,False,4
4,3,229,test,2,female,Latino,,,,,neutral,female,,3,1204,,False,3
4,3,230,test,2,female,Latino,,,,,neutral,male,,3,2264,,False,3
4,3,231,test,2,female,Black,,,,,angry,female,,6,1632,,False,6
4,3,232,test,2,female,White,,,,,happy,male,,5,1115,,False,5
4,3,233,test,2,female,White,,,,,happy,female,,6,1564,,False,6
4,3,234,test,2,female,White,,,,,happy,female,,6,1200,,False,6
4,3,235,test,2,female,Black,,,,,angry,male,,4,1437,,False,4
4,3,236,test,2,female,Black,,,,,neutral,male,,4,1228,,False,4
4,3,237,test,2,male,Black,,,,,happy,male,,5,1442,,False,5
4,3,238,test,2,female,Black,,,,,angry,male,,6,2523,,False,6
4,3,239,test,2,female,Asian,,,,,neutral,male,,5,990,,False,5
4,3,240,test,2,male,White,,,,,neutral,female,,5,1098,,False,5
5,1,1,study,0,female,Asian,male,White,happy,,,,,z,854,True,False,
5,1,2,study,0,male,Latino,female,Black,angry,,,,,m,564,True,False,
5,1,3,study,0,female,Latino,male,White,angry,,,,,z,815,True,False,
5,1,4,study,0,male,Black,male,Black,neutral,,,,,m,769,True,False,
5,1,5,study,0,female,White,female,White,neutral,,,,,z,639,True,False,
5,1,6,study,0,male,White,male,Black,happy,,,,,m,590,True,False,
5,1,7,study,0,female,Asian,female,White,happy,,,,,z,645,True,False,
5,1,8,study,0,female,Black,male,White,neutral,,,,,z,630,True,False,
5,1,9,study,0,male,Black,female,Black,angry,,,,,m,774,True,False,
5,1,10,study,0,male,Asian,male,Black,happy,,,,,m,1151,True,False,
5,1,11,study,0,female,White,male,White,angry,,,,,z,968,True,False,
5,1,12,study,0,male,Latino,female,White,neutral,,,,,m,600,True,False,
5,1,13,study,0,male,White,female,White,neutral,,,,,m,691,True,False,
5,1,14,study,0,male,White,male,White,angry,,,,,m,650,True,False,
5,1,15,study,0,male,Black,female,White,angry,,,,,m,842,True,False,
5,1,16,study,0,male,White,male,White,neutral,,,,,m,762,True,False,
5,1,17,study,0,male,Black,female,Black,happy,,,,,m,948,True,False,
5,1,18,study,0,male,Black,female,Black,happy,,,,,m,594,True,False,
5,1,19,study,0,male,Asian,female,Black,angry,,,,,m,729,True,False,
5,1,20,study,0,female,Black,female,Black,angry,,,,,z,606,True,False,
5,1,21,study,0,female,Latino,male,Black,happy,,,,,z,928,True,False,
5,1,22,study,0,female,White,female,Black,neutral,,,,,z,690,True,False,
5,1,23,study,0,female,Latino,male,White,angry,,,,,z,1314,True,False,
5,1,24,study,0,female,Black,female,White,happy,,,,,z,936,True,False,
5,1,25,study,0,male,Black,male,Black,neutral,,,,,m,893,True,False,
5,1,26,study,0,female,Black,male,White,happy,,,,,z,746,True,False,
5,1,27,study,0,female,Latino,female,White,angry,,,,,z,718,True,False,
5,1,28,study,0,male,Asian,male,White,angry,,,,,m,1408,True,False,
5,1,29,study,0,male,White,male,Black,angry,,,,,m,1263,True,False,
5,1,30,study,0,male,Black,male,White,happy,,,,,m,966,True,False,
5,1,31,study,0,male,White,male,Black,neutral,,,,,m,735,True,False,
5,1,32,study,0,male,White,male,Black,angry,,,,,m,1660,True,False,
5,1,33,study,0,female,Black,female,Black,happy,,,,,z,1564,True,False,
5,1,34,study,0,male,Black,male,Black,neutral,,,,,m,1167,True,False,
5,1,35,study,0,male,Latino,female,White,angry,,,,,m,593,True,False,
5,1,36,study,0,male,Asian,female,Black,happy,,,,,m,1202,True,False,
5,1,37,study,0,female,Black,male,Black,happy,,,,,z,1139,True,False,
5,1,38,study,0,male,Latino,female,White,happy,,,,,m,784,True,False,
5,1,39,study,0,female,Latino,male,Black,happy,,,,,z,625,True,False,
5,1,40,study,0,male,Latino,male,White,angry,,,,,m,778,True,False,
5,1,41,study,1,female,Black,male,White,happy,,,,,z,928,True,False,
5,1,42,study,1,female,White,female,Black,neutral,,,,,z,548,True,False,
5,1,43,study,1,male,Black,male,White,happy,,,,,m,1046,True,False,
5,1,44,study,1,female,Latino,male,Black,angry,,,,,z,1878,True,False,
5,1,45,study,1,male,White,female,Black,angry,,,,,m,1078,True,False,
5,1,46,study,1,female,Asian,male,Black,neutral,,,,,z,986,True,False,
5,1,47,study,1,female,Asian,male,Black,neutral,,,,,z,898,True,False,
5,1,48,study,1,female,Latino,male,Black,neutral,,,,,z,862,True,False,
5,1,49,study,1,male,White,female,White,angry,,,,,m,865,True,False,
5,1,50,study,1,male,Black,female,Black,happy,,,,,m,652,True,False,
5,1,51,study,1,female,Black,female,White,neutral,,,,,z,1440,True,False,
5,1,52,study,1,female,Latino,male,Black,angry,,,,,z,602,True,False,
5,1,53,study,1,male,Asian,male,White,happy,,,,,m,574,True,False,
5,1,54,study,1,male,White,male,Black,angry,,,,,m,1741,True,False,
5,1,55,study,1,male,White,female,Black,neutral,,,,,m,878,True,False,
5,1,56,study,1,male,Black,female,Black,neutral,,,,,m,589,True,False,
5,1,57,study,1,female,Latino,female,White,angry,,,,,z,617,True,False,
5,1,58,study,1,male,Latino,female,White,neutral,,,,,m,997,True,False,
5,1,59,study,1,female,Black,male,White,happy,,,,,z,1303,True,False,
5,1,60,study,1,male,White,male,Black,neutral,,,,,m,583,True,False,
5,1,61,study,1,male,Black,female,White,happy,,,,,m,547,True,False,
5,1,62,study,1,female,Black,male,White,neutral,,,,,z,832,True,False,
5,1,63,study,1,male,Black,female,White,neutral,,,,,m,1000,True,False,
5,1,64,study,1,female,White,female,Black,happy,,,,,z,1214,True,False,
5,1,65,study,1,female,Black,female,White,angry,,,,,z,1535,True,False,
5,1,66,study,1,female,White,male,Black,neutral,,,,,z,1284,True,False,
5,1,67,study,1,female,Asian,male,Black,neutral,,,,,z,1423,True,False,
5,1,68,study,1,male,Asian,male,White,angry,,,,,m,1048,True,False,
5,1,69,study,1,male,Black,female,Black,angry,,,,,m,882,True,False,
5,1,70,study,1,male,Latino,female,Black,neutral,,,,,m,658,True,False,
5,1,71,study,1,female,Asian,male,White,angry,,,,,z,616,True,False,
5,1,72,study,1,male,Asian,female,Black,angry,,,,,m,870,True,False,
5,1,73,study,1,female,Asian,male,Black,angry,,,,,z,887,True,False,
5,1,74,study,1,male,Asian,male,Black,angry,,,,,m,1004,True,False,
5,1,75,study,1,female,Latino,male,White,happy,,,,,z,650,True,False,
5,1,76,study,1,female,Latino,female,Black,neutral,,,,,z,817,True,False,
5,1,77,study,1,male,Asian,male,Black,happy,,,,,m,1013,True,False,
5,1,78,study,1,female,Black,female,Black,neutral,,,,,z,672,True,False,
5,1,79,study,1,female,Asian,female,White,angry,,,,,z,560,True,False,
5,1,80,study,1,male,White,male,White,happy,,,,,m,827,True,False,
5,1,81,study,2,female,Black,male,Black,neutral,,,,,z,886,True,False,
5,1,82,study,2,male,Latino,male,White,neutral,,,,,m,538,True,False,
5,1,83,study,2,female,White,female,Black,neutral,,,,,z,796,True,False,
5,1,84,study,2,male,Asian,female,Black,angry,,,,,m,1274,True,False,
5,1,85,study,2,male,White,male,Black,happy,,,,,m,614,True,False,
5,1,86,study,2,female,Black,female,Black,happy,,,,,z,602,True,False,
5,1,87,study,2,female,White,female,Black,happy,,,,,z,692,True,False,
5,1,88,study,2,male,Black,female,White,happy,,,,,m,682,True,False,
5,1,89,study,2,female,Black,male,Black,happy,,,,,z,907,True,False,
5,1,90,study,2,male,Latino,female,White,neutral,,,,,m,614,True,False,
5,1,91,study,2,female,Black,female,Black,happy,,,,,z,846,True,False,
5,1,92,study,2,female,White,male,White,neutral,,,,,z,656,True,False,
5,1,93,study,2,female,White,female,Black,neutral,,,,,z,995,True,False,
5,1,94,study,2,female,Asian,female,White,angry,,,,,z,793,True,False,
5,1,95,study,2,female,Latino,female,White,angry,,,,,z,1629,True,False,
5,1,96,study,2,female,Latino,male,White,angry,,,,,z,650,True,False,
5,1,97,study,2,male,Latino,male,Black,neutral,,,,,m,688,True,False,
5,1,98,study,2,female,Asian,female,White,happy,,,,,z,551,True,False,
5,1,99,study,2,female,Black,female,Black,angry,,,,,z,940,True,False,
5,1,100,study,2,female,White,female,Black,angry,,,,,z,718,True,False,
5,1,101,study,2,male,White,female,White,neutral,,,,,m,829,True,False,
5,1,102,study,2,female,Latino,female,Black,neutral,,,,,z,751,True,False,
5,1,103,study,2,female,Black,male,White,angry,,,,,z,543,True,False,
5,1,104,study,2,male,Latino,male,Black,neutral,,,,,m,580,True,False,
5,1,105,study,2,male,Black,male,White,neutral,,,,,m,580,True,False,
5,1,106,study,2,female,Asian,male,Black,happy,,,,,z,541,True,False,
5,1,107,study,2,male,White,female,Black,neutral,,,,,m,694,True,False,
5,1,108,study,2,female,White,male,White,neutral,,,,,z,754,True,False,
5,1,109,study,2,male,Asian,male,Black,angry,,,,,m,583,True,False,
5,1,110,study,2,female,Asian,female,Black,angry,,,,,z,558,True,False,
5,1,111,study,2,male,Black,male,White,happy,,,,,m,571,True,False,
5,1,112,study,2,female,White,female,White,neutral,,,,,z,515,True,False,
5,1,113,study,2,female,Black,female,Black,happy,,,,,z,636,True,False,
5,1,114,study,2,male,Black,female,Black,happy,,,,,m,555,True,False,
5,1,115,study,2,male,Asian,male,White,happy,,,,,m,636,True,False,
5,1,116,study,2,male,White,male,Black,angry,,,,,m,745,True,False,
5,1,117,study,2,female,Black,male,White,angry,,,,,z,1322,True,False,
5,1,118,study,2,male,White,female,Black,happy,,,,,m,685,True,False,
5,1,119,study,2,male,Latino,female,Black,happy,,,,,m,759,True,False,
5,1,120,study,2,female,White,female,White,happy,,,,,z,825,True,False,
5,1,121,test,0,male,Latino,,,,new,,,,m,1048,True,False,
5,1,122,test,0,female,Latino,,,,new,,,,m,1064,True,False,
5,1,123,test,0,male,Latino,,,,old,neutral,male,,m,1144,False,False,
5,1,124,test,0,male,Asian,,,,new,,,,m,1626,True,False,
5,1,125,test,0,female,Asian,,,,new,,,,m,1701,True,False,
5,1,126,test,0,female,Asian,,,,old,angry,male,,z,1189,True,False,
5,1,127,test,0,male,White,,,,new,,,,m,743,True,False,
5,1,128,test,0,female,White,,,,new,,,,m,837,True,False,
5,1,129,test,0,female,Latino,,,,new,,,,m,1095,True,False,
5,1,130,test,0,male,White,,,,old,happy,male,,z,949,True,False,
5,1,131,test,0,male,Latino,,,,new,,,,m,2582,True,False,
5,1,132,test,0,female,White,,,,new,,,,m,1536,True,False,
5,1,133,test,0,male,White,,,,old,neutral,male,,m,1100,False,False,
5,1,134,test,0,male,Latino,,,,new,,,,m,2278,True,False,
5,1,135,test,0,female,Latino,,,,new,,,,m,1350,True,False,
5,1,136,test,0,male,Latino,,,,new,,,,m,764,True,False,
5,1,137,test,0,male,Asian,,,,old,happy,male,,m,809,False,False,
5,1,138,test,0,female,Black,,,,old,angry,male,,z,1302,True,False,
5,1,139,test,0,female,Asian,,,,new,,,,z,1453,False,False,
5,1,140,test,0,male,White,,,,old,happy,female,,z,1166,True,False,
5,1,141,test,0,male,White,,,,new,,,,z,873,False,False,
5,1,142,test,0,male,Black,,,,old,angry,female,,m,1321,False,False,
5,1,143,test,0,male,White,,,,new,,,,m,893,True,False,
5,1,144,test,0,female,Black,,,,new,,,,m,955,True,False,
5,1,145,test,0,male,Black,,,,new,,,,m,696,True,False,
5,1,146,test,0,female,Latino,,,,old,angry,male,,m,2369,False,False,
5,1,147,test,0,female,Asian,,,,old,happy,female,,z,906,True,False,
5,1,148,test,0,female,Latino,,,,old,neutral,male,,m,1096,False,False,
5,1,149,test,0,female,Latino,,,,old,happy,male,,z,2148,True,False,
5,1,150,test,0,male,White,,,,new,,,,m,1143,True,False,
5,1,151,test,0,male,White,,,,old,angry,male,,z,1030,True,False,
5,1,152,test,0,male,Asian,,,,old,angry,male,,m,743,False,False,
5,1,153,test,0,female,White,,,,new,,,,m,1125,True,False,
5,1,154,test,0,male,Asian,,,,new,,,,m,728,True,False,
5,1,155,test,0,male,Latino,,,,old,happy,female,,z,2149,True,False,
5,1,156,test,0,female,Latino,,,,old,neutral,female,,m,1750,False,False,
5,1,157,test,0,female,Latino,,,,old,angry,male,,m,1058,False,False,
5,1,158,test,0,male,White,,,,new,,,,m,1661,True,False,
5,1,159,test,0,male,Black,,,,new,,,,m,2067,True,False,
5,1,160,test,0,female,Black,,,,new,,,,m,892,True,False,
5,1,161,test,1,male,White,,,,old,neutral,female,,m,998,False,False,
5,1,162,test,1,male,Latino,,,,old,happy,female,,m,644,False,False,
5,1,163,test,1,female,Latino,,,,new,,,,m,575,True,False,
5,1,164,test,1,male,Asian,,,,old,angry,female,,m,547,False,False,
5,1,165,test,1,male,White,,,,old,neutral,female,,z,803,True,False,
5,1,166,test,1,male,Black,,,,new,,,,m,568,True,False,
5,1,167,test,1,male,Black,,,,old,neutral,female,,m,1588,False,False,
5,1,168,test,1,female,Black,,,,new,,,,m,713,True,False,
5,1,169,test,1,female,Black,,,,new,,,,m,750,True,False,
5,1,170,test,1,female,Asian,,,,old,neutral,male,,z,601,True,False,
5,1,171,test,1,female,Black,,,,new,,,,m,611,True,False,
5,1,172,test,1,female,White,,,,new,,,,z,1777,False,False,
5,1,173,test,1,female,White,,,,new,,,,m,878,True,False,
5,1,174,test,1,male,Asian,,,,new,,,,m,583,True,False,
5,1,175,test,1,male,Latino,,,,new,,,,m,616,True,False,
5,1,176,test,1,male,Black,,,,old,angry,female,,m,594,False,False,
5,1,177,test,1,female,White,,,,old,happy,female,,z,1221,True,False,
5,1,178,test,1,female,Black,,,,old,happy,female,,z,1009,True,False,
5,1,179,test,1,male,Asian,,,,new,,,,m,722,True,False,
5,1,180,test,1,male,Black,,,,old,neutral,male,,m,1761,False,False,
5,1,181,test,1,female,White,,,,new,,,,m,1464,True,False,
5,1,182,test,1,female,Black,,,,new,,,,z,1284,False,False,
5,1,183,test,1,female,Latino,,,,old,happy,male,,z,876,True,False,
5,1,184,test,1,male,Black,,,,old,happy,female,,m,704,False,False,
5,1,185,test,1,male,Black,,,,old,angry,female,,z,859,True,False,
5,1,186,test,1,male,Asian,,,,new,,,,z,813,False,False,
5,1,187,test,1,female,Asian,,,,new,,,,m,1415,True,False,
5,1,188,test,1,male,Asian,,,,new,,,,z,1723,False,False,
5,1,189,test,1,female,Asian,,,,old,neutral,male,,z,1764,True,False,
5,1,190,test,1,male,White,,,,old,angry,male,,z,816,True,False,
5,1,191,test,1,female,Black,,,,old,happy,male,,m,889,False,False,
5,1,192,test,1,male,White,,,,new,,,,z,853,False,False,
5,1,193,test,1,female,Asian,,,,old,angry,female,,m,1304,False,False,
5,1,194,test,1,male,White,,,,old,angry,male,,z,1045,True,False,
5,1,195,test,1,male,Latino,,,,old,neutral,male,,m,784,False,False,
5,1,196,test,1,male,White,,,,old,neutral,female,,m,935,False,False,
5,1,197,test,1,male,Latino,,,,new,,,,m,864,True,False,
5,1,198,test,1,female,Asian,,,,new,,,,m,756,True,False,
5,1,199,test,1,male,Black,,,,new,,,,m,648,True,False,
5,1,200,test,1,male,Latino,,,,old,neutral,female,,m,805,False,False,
5,1,201,test,2,female,Asian,,,,new,,,,m,1763,True,False,
5,1,202,test,2,female,Latino,,,,new,,,,m,989,True,False,
5,1,203,test,2,male,Black,,,,old,happy,male,,z,1284,True,False,
5,1,204,test,2,male,White,,,,old,angry,female,,z,1293,True,False,
5,1,205,test,2,female,Black,,,,old,happy,female,,m,1061,False,False,
5,1,206,test,2,female,Asian,,,,new,,,,m,937,True,False,
5,1,207,test,2,female,White,,,,new,,,,m,702,True,False,
5,1,208,test,2,female,White,,,,old,neutral,male,,z,1352,True,False,
5,1,209,test,2,female,White,,,,new,,,,m,1096,True,False,
5,1,210,test,2,male,White,,,,new,,,,m,635,True,False,
5,1,211,test,2,female,Latino,,,,old,happy,male,,m,1078,False,False,
5,1,212,test,2,male,Black,,,,old,neutral,male,,z,2640,True,False,
5,1,213,test,2,female,Latino,,,,old,angry,male,,z,1315,True,False,
5,1,214,test,2,female,Black,,,,new,,,,m,1329,True,False,
5,1,215,test,2,male,White,,,,new,,,,m,1011,True,False,
5,1,216,test,2,female,White,,,,old,neutral,female,,m,677,False,False,
5,1,217,test,2,female,Black,,,,old,neutral,female,,m,2040,False,False,
5,1,218,test,2,male,White,,,,old,neutral,female,,z,1483,True,False,
5,1,219,test,2,female,Asian,,,,old,angry,male,,m,1531,False,False,
5,1,220,test,2,female,White,,,,old,happy,female,,m,1647,False,False,
5,1,221,test,2,female,Black,,,,new,,,,m,1027,True,False,
5,1,222,test,2,male,White,,,,new,,,,m,902,True,False,
5,1,223,test,2,male,Latino,,,,new,,,,z,1618,False,False,
5,1,224,test,2,male,Latino,,,,new,,,,m,1162,True,False,
5,1,225,test,2,male,Latino,,,,new,,,,m,907,True,False,
5,1,226,test,2,male,White,,,,new,,,,m,1646,True,False,
5,1,227,test,2,female,Asian,,,,new,,,,m,1515,True,False,
5,1,228,test,2,female,White,,,,old,neutral,female,,m,740,False,False,
5,1,229,test,2,female,Asian,,,,old,angry,female,,z,2024,True,False,
5,1,230,test,2,male,Asian,,,,old,happy,male,,z,1352,True,False,
5,1,231,test,2,male,Asian,,,,new,,,,m,1382,True,False,
5,1,232,test,2,male,Black,,,,old,happy,female,,m,2109,False,False,
5,1,233,test,2,male,Asian,,,,new,,,,m,1360,True,False,
5,1,234,test,2,female,White,,,,new,,,,m,2060,True,False,
5,1,235,test,2,male,Asian,,,,new,,,,m,714,True,False,
5,1,236,test,2,female,Black,,,,old,neutral,male,,z,2402,True,False,
5,1,237,test,2,male,Asian,,,,old,happy,male,,z,1647,True,False,
5,1,238,test,2,male,White,,,,old,neutral,male,,m,1805,False,False,
5,1,239,test,2,male,Asian,,,,new,,,,m,933,True,False,
5,1,240,test,2,male,Asian,,,,old,angry,male,,m,782,False,False,
5,1,241,test,3,female,White,,,,old,angry,male,,m,1022,False,False,
5,1,242,test,3,male,Latino,,,,old,neutral,female,,m,1445,False,False,
5,1,243,test,3,male,Latino,,,,old,angry,male,,z,1765,True,False,
5,1,244,test,3,female,Black,,,,new,,,,m,1376,True,False,
5,1,245,test,3,male,Latino,,,,new,,,,m,732,True,False,
5,1,246,test,3,male,Latino,,,,old,neutral,female,,m,2298,False,False,
5,1,247,test,3,female,White,,,,new,,,,m,1379,True,False,
5,1,248,test,3,female,Black,,,,old,happy,male,,m,1673,False,False,
5,1,249,test,3,female,Latino,,,,new,,,,m,1369,True,False,
5,1,250,test,3,female,White,,,,new,,,,m,2079,True,False,
5,1,251,test,3,female,Asian,,,,new,,,,z,1491,False,False,
5,1,252,test,3,male,Black,,,,old,happy,female,,m,1629,False,False,
5,1,253,test,3,female,White,,,,new,,,,m,1161,True,False,
5,1,254,test,3,male,Black,,,,new,,,,m,1563,True,False,
5,1,255,test,3,female,White,,,,old,happy,female,,m,1217,False,False,
5,1,256,test,3,male,White,,,,new,,,,z,1281,False,False,
5,1,257,test,3,male,Asian,,,,new,,,,m,937,True,False,
5,1,258,test,3,female,Asian,,,,new,,,,,,False,True,
5,1,259,test,3,female,Black,,,,old,angry,female,,z,1221,True,False,
5,1,260,test,3,male,Black,,,,old,neutral,male,,z,1771,True,False,
5,1,261,test,3,female,White,,,,old,neutral,male,,z,1337,True,False,
5,1,262,test,3,female,Asian,,,,old,neutral,male,,m,1791,False,False,
5,1,263,test,3,male,Latino,,,,new,,,,z,1795,False,False,
5,1,264,test,3,male,Black,,,,old,happy,male,,m,1041,False,False,
5,1,265,test,3,male,Asian,,,,old,angry,male,,m,1424,False,False,
5,1,266,test,3,female,White,,,,old,angry,female,,z,1531,True,False,
5,1,267,test,3,male,Asian,,,,new,,,,z,1276,False,False,
5,1,268,test,3,male,Latino,,,,new,,,,m,1100,True,False,
5,1,269,test,3,female,Latino,,,,old,angry,female,,m,1185,False,False,
5,1,270,test,3,male,White,,,,new,,,,z,1262,False,False,
5,1,271,test,3,female,White,,,,new,,,,z,1927,False,False,
5,1,272,test,3,male,Latino,,,,new,,,,m,2271,True,False,
5,1,273,test,3,male,Black,,,,new,,,,m,1140,True,False,
5,1,274,test,3,male,Asian,,,,old,happy,female,,z,1536,True,False,
5,1,275,test,3,female,Latino,,,,new,,,,m,1414,True,False,
5,1,276,test,3,male,Asian,,,,old,angry,female,,m,2185,False,False,
5,1,277,test,3,female,Latino,,,,new,,,,m,1351,True,False,
5,1,278,test,3,male,Asian,,,,new,,,,m,1225,True,False,
5,1,279,test,3,male,Black,,,,old,happy,male,,z,2004,True,False,
5,1,280,test,3,female,White,,,,old,neutral,male,,z,2081,True,False,
5,1,281,test,4,female,Latino,,,,new,,,,m,907,True,False,
5,1,282,test,4,female,Latino,,,,old,neutral,female,,z,1481,True,False,
5,1,283,test,4,female,Black,,,,new,,,,m,1196,True,False,
5,1,284,test,4,male,White,,,,old,angry,male,,z,1361,True,False,
5,1,285,test,4,female,White,,,,new,,,,m,802,True,False,
5,1,286,test,4,female,White,,,,old,neutral,female,,m,1037,False,False,
5,1,287,test,4,male,Black,,,,old,happy,female,,z,1296,True,False,
5,1,288,test,4,female,Black,,,,old,happy,male,,m,944,False,False,
5,1,289,test,4,female,Asian,,,,old,angry,female,,m,1315,False,False,
5,1,290,test,4,male,Latino,,,,new,,,,m,1229,True,False,
5,1,291,test,4,female,Black,,,,new,,,,m,788,True,False,
5,1,292,test,4,female,White,,,,new,,,,m,1045,True,False,
5,1,293,test,4,female,Asian,,,,old,happy,female,,m,767,False,False,
5,1,294,test,4,male,Black,,,,new,,,,z,1457,False,False,
5,1,295,test,4,female,Black,,,,old,angry,female,,z,1634,True,False,
5,1,296,test,4,female,Black,,,,old,neutral,male,,m,734,False,False,
5,1,297,test,4,male,Latino,,,,old,angry,female,,m,604,False,False,
5,1,298,test,4,male,Latino,,,,new,,,,m,645,True,False,
5,1,299,test,4,male,Asian,,,,old,happy,male,,m,604,False,False,
5,1,300,test,4,female,White,,,,new,,,,m,808,True,False,
5,1,301,test,4,male,Black,,,,new,,,,m,759,True,False,
5,1,302,test,4,female,White,,,,old,neutral,female,,m,1234,False,False,
5,1,303,test,4,male,Black,,,,old,neutral,female,,m,659,False,False,
5,1,304,test,4,female,Asian,,,,old,happy,male,,m,1088,False,False,
5,1,305,test,4,female,Black,,,,new,,,,m,643,True,False,
5,1,306,test,4,female,Asian,,,,new,,,,m,1291,True,False,
5,1,307,test,4,male,White,,,,old,happy,male,,m,1471,False,False,
5,1,308,test,4,female,Latino,,,,new,,,,m,1551,True,False,
5,1,309,test,4,male,Asian,,,,new,,,,z,1170,False,False,
5,1,310,test,4,female,Black,,,,old,happy,male,,m,921,False,False,
5,1,311,test,4,female,Black,,,,old,neutral,male,,z,1253,True,False,
5,1,312,test,4,female,White,,,,new,,,,m,866,True,False,
5,1,313,test,4,male,Black,,,,new,,,,z,848,False,False,
5,1,314,test,4,female,Asian,,,,old,happy,male,,m,1124,False,False,
5,1,315,test,4,female,Asian,,,,new,,,,m,861,True,False,
5,1,316,test,4,male,Asian,,,,old,angry,male,,z,876,True,False,
5,1,317,test,4,female,White,,,,new,,,,m,722,True,False,
5,1,318,test,4,female,Black,,,,old,happy,female,,m,1583,False,False,
5,1,319,test,4,female,Latino,,,,new,,,,m,953,True,False,
5,1,320,test,4,female,Black,,,,old,neutral,female,,z,881,True,False,
5,1,321,test,5,male,Asian,,,,old,angry,female,,z,829,True,False,
5,1,322,test,5,female,Black,,,,old,happy,male,,m,885,False,False,
5,1,323,test,5,male,Asian,,,,new,,,,m,1288,True,False,
5,1,324,test,5,female,Asian,,,,new,,,,m,2724,True,False,
5,1,325,test,5,male,White,,,,new,,,,m,1107,True,False,
5,1,326,test,5,female,Latino,,,,new,,,,m,1612,True,False,
5,1,327,test,5,male,Black,,,,old,happy,female,,z,1378,True,False,
5,1,328,test,5,male,Black,,,,old,neutral,male,,m,879,False,False,
5,1,329,test,5,male,White,,,,old,angry,male,,m,1034,False,False,
5,1,330,test,5,female,Black,,,,new,,,,m,1285,True,False,
5,1,331,test,5,female,Black,,,,old,happy,female,,m,1218,False,False,
5,1,332,test,5,female,Latino,,,,old,angry,male,,m,1008,False,False,
5,1,333,test,5,male,White,,,,new,,,,m,831,True,False,
5,1,334,test,5,female,Black,,,,old,angry,female,,z,940,True,False,
5,1,335,test,5,female,Black,,,,new,,,,m,752,True,False,
5,1,336,test,5,female,Asian,,,,new,,,,z,716,False,False,
5,1,337,test,5,male,White,,,,old,neutral,male,,m,1241,False,False,
5,1,338,test,5,male,Asian,,,,new,,,,m,686,True,False,
5,1,339,test,5,female,White,,,,old,neutral,female,,z,1042,True,False,
5,1,340,test,5,female,Latino,,,,old,angry,male,,m,1325,False,False,
5,1,341,test,5,male,Latino,,,,old,neutral,male,,m,677,False,False,
5,1,342,test,5,female,Black,,,,new,,,,m,1884,True,False,
5,1,343,test,5,female,Black,,,,new,,,,m,1135,True,False,
5,1,344,test,5,male,Asian,,,,new,,,,z,1123,False,False,
5,1,345,test,5,male,White,,,,new,,,,z,1007,False,False,
5,1,346,test,5,female,Latino,,,,old,angry,female,,z,944,True,False,
5,1,347,test,5,female,Black,,,,old,happy,female,,z,1843,True,False,
5,1,348,test,5,female,Black,,,,old,angry,male,,z,857,True,False,
5,1,349,test,5,male,Latino,,,,old,angry,female,,z,1367,True,False,
5,1,350,test,5,male,Black,,,,new,,,,m,1040,True,False,
5,1,351,test,5,male,Latino,,,,new,,,,m,931,True,False,
5,1,352,test,5,male,Latino,,,,new,,,,m,954,True,False,
5,1,353,test,5,male,Latino,,,,old,neutral,female,,z,1209,True,False,
5,1,354,test,5,male,White,,,,new,,,,m,982,True,False,
5,1,355,test,5,male,White,,,,old,happy,male,,m,752,False,False,
5,1,356,test,5,male,Black,,,,old,happy,female,,m,942,False,False,
5,1,357,test,5,male,White,,,,old,angry,female,,m,764,False,False,
5,1,358,test,5,female,Latino,,,,new,,,,m,895,True,False,
5,1,359,test,5,female,Latino,,,,old,angry,female,,m,1634,False,False,
5,1,360,test,5,female,White,,,,old,neutral,female,,m,1766,False,False,
6,3,1,study,0,female,Black,male,White,neutral,,,,,m,453,False,False,
6,3,2,study,0,male,Black,male,Black,happy,,,,,m,603,True,False,
6,3,3,study,0,male,White,female,Black,happy,,,,,,,False,True,
6,3,4,study,0,male,White,male,White,happy,,,,,m,1833,True,False,
6,3,5,study,0,female,White,male,White,neutral,,,,,z,849,True,False,
6,3,6,study,0,female,Black,male,Black,happy,,,,,z,588,True,False,
6,3,7,study,0,male,Latino,male,White,angry,,,,,m,1521,True,False,
6,3,8,study,0,female,Black,male,Black,neutral,,,,,z,800,True,False,
6,3,9,study,0,female,Black,female,White,neutral,,,,,z,504,True,False,
6,3,10,study,0,male,Black,female,Black,happy,,,,,m,1172,True,False,
6,3,11,study,0,male,Black,female,White,angry,,,,,m,1650,True,False,
6,3,12,study,0,male,White,male,Black,neutral,,,,,m,516,True,False,
6,3,13,study,0,male,Asian,male,Black,neutral,,,,,m,588,True,False,
6,3,14,study,0,male,White,male,White,angry,,,,,m,529,True,False,
6,3,15,study,0,female,Latino,female,White,happy,,,,,z,668,True,False,
6,3,16,study,0,male,Asian,female,White,angry,,,,,m,1342,True,False,
6,3,17,study,0,male,White,female,Black,happy,,,,,m,608,True,False,
6,3,18,study,0,male,Latino,male,Black,happy,,,,,m,624,True,False,
6,3,19,study,0,male,Black,female,White,neutral,,,,,m,1356,True,False,
6,3,20,study,0,male,White,male,White,neutral,,,,,z,938,False,False,
6,3,21,study,0,male,Asian,female,Black,neutral,,,,,m,1009,True,False,
6,3,22,study,0,female,White,female,White,neutral,,,,,z,1130,True,False,
6,3,23,study,0,male,Black,male,White,neutral,,,,,m,1003,True,False,
6,3,24,study,0,female,White,female,White,neutral,,,,,z,804,True,False,
6,3,25,study,0,female,Latino,female,White,happy,,,,,z,1133,True,False,
6,3,26,study,0,male,Black,male,White,neutral,,,,,m,1335,True,False,
6,3,27,study,0,male,Black,female,White,angry,,,,,m,1031,True,False,
6,3,28,study,0,male,Latino,male,White,happy,,,,,m,811,True,False,
6,3,29,study,0,male,Black,female,Black,happy,,,,,m,1217,True,False,
6,3,30,study,0,female,Black,female,Black,neutral,,,,,z,1103,True,False,
6,3,31,study,0,male,Latino,female,White,happy,,,,,m,917,True,False,
6,3,32,study,0,female,Black,male,Black,neutral,,,,,z,1093,True,False,
6,3,33,study,0,female,Black,female,White,happy,,,,,z,1030,True,False,
6,3,34,study,0,male,Asian,male,White,neutral,,,,,m,736,True,False,
6,3,35,study,0,male,Black,female,White,neutral,,,,,m,1061,True,False,
6,3,36,study,0,female,White,female,White,angry,,,,,z,860,True,False,
6,3,37,study,0,female,Asian,female,Black,angry,,,,,z,1167,True,False,
6,3,38,study,0,female,Black,male,Black,angry,,,,,z,737,True,False,
6,3,39,study,0,male,White,male,Black,angry,,,,,m,803,True,False,
6,3,40,study,0,male,Black,female,Black,happy,,,,,m,784,True,False,
6,3,41,study,1,male,Asian,female,Black,happy,,,,,,,False,True,
6,3,42,study,1,female,Black,female,White,neutral,,,,,z,1231,True,False,
6,3,43,study,1,female,Latino,female,Black,angry,,,,,z,1038,True,False,
6,3,44,study,1,male,Black,female,Black,neutral,,,,,m,944,True,False,
6,3,45,study,1,female,Black,male,White,angry,,,,,z,813,True,False,
6,3,46,study,1,female,Black,female,White,angry,,,,,z,909,True,False,
6,3,47,study,1,female,Latino,female,Black,angry,,,,,z,808,True,False,
6,3,48,study,1,female,Latino,female,Black,angry,,,,,z,871,True,False,
6,3,49,study,1,male,Asian,female,White,angry,,,,,m,768,True,False,
6,3,50,study,1,male,Black,female,White,neutral,,,,,m,1033,True,False,
6,3,51,study,1,male,Black,male,Black,angry,,,,,m,782,True,False,
6,3,52,study,1,male,Latino,male,White,angry,,,,,m,980,True,False,
6,3,53,study,1,female,White,female,Black,neutral,,,,,z,1172,True,False,
6,3,54,study,1,male,Latino,female,White,happy,,,,,m,1205,True,False,
6,3,55,study,1,male,Latino,male,White,happy,,,,,m,861,True,False,
6,3,56,study,1,male,White,male,Black,angry,,,,,m,852,True,False,
6,3,57,study,1,female,White,female,Black,happy,,,,,z,772,True,False,
6,3,58,study,1,female,Asian,male,Black,angry,,,,,m,990,False,False,
6,3,59,study,1,female,Asian,male,Black,happy,,,,,z,901,True,False,
6,3,60,study,1,male,Black,female,White,happy,,,,,m,795,True,False,
6,3,61,study,1,male,Latino,female,Black,angry,,,,,m,931,True,False,
6,3,62,study,1,male,White,male,Black,happy,,,,,m,1245,True,False,
6,3,63,study,1,female,Black,male,White,happy,,,,,z,873,True,False,
6,3,64,study,1,female,White,female,Black,neutral,,,,,z,795,True,False,
6,3,65,study,1,female,Black,female,Black,happy,,,,,z,981,True,False,
6,3,66,study,1,female,White,female,White,neutral,,,,,z,717,True,False,
6,3,67,study,1,male,White,male,Black,angry,,,,,m,864,True,False,
6,3,68,study,1,male,Latino,female,Black,neutral,,,,,m,824,True,False,
6,3,69,study,1,female,Black,male,White,happy,,,,,z,941,True,False,
6,3,70,study,1,male,Latino,male,White,angry,,,,,m,759,True,False,
6,3,71,study,1,female,Asian,male,Black,happy,,,,,z,715,True,False,
6,3,72,study,1,female,Black,male,Black,neutral,,,,,z,667,True,False,
6,3,73,study,1,female,White,female,White,neutral,,,,,z,816,True,False,
6,3,74,study,1,male,Black,female,Black,angry,,,,,m,1062,True,False,
6,3,75,study,1,male,Asian,female,White,neutral,,,,,m,856,True,False,
6,3,76,study,1,male,Asian,male,White,angry,,,,,m,744,True,False,
6,3,77,study,1,male,Black,male,Black,happy,,,,,m,886,True,False,
