subject_number,condition,trial_number,phase,block,target_gender,target_race,flanker_gender,flanker_race,flanker_emotion,stimulus_type,study_flanker_emotion,study_flanker_gender,pair_type,response,rt,correct,timed_out,rating,key_mapping,subject_id,study_id,session_id,test_mode,trial_index,target_id,target_filename,flanker_id,flanker_filename,correct_response,device_pixel_ratio
1,1,1,study,0,male,Latino,female,White,happy,,,,,m,875,True,False,,1,,,,False,17,LM-235,materials/cfd/Images/CFD/LM-235/CFD-LM-235-231-N.jpg,WF-027,materials/cfd/Images/CFD/WF-027/CFD-WF-027-021-HO.jpg,m,2
1,1,2,study,0,female,Latino,female,White,happy,,,,,z,1880,True,False,,1,,,,False,19,LF-200,materials/cfd/Images/CFD/LF-200/CFD-LF-200-058-N.jpg,WF-018,materials/cfd/Images/CFD/WF-018/CFD-WF-018-018-HO.jpg,z,2
1,1,3,study,0,male,Asian,female,White,neutral,,,,,m,854,True,False,,1,,,,False,21,AM-206,materials/cfd/Images/CFD/AM-206/CFD-AM-206-086-N.jpg,WF-251,materials/cfd/Images/CFD/WF-251/CFD-WF-251-014-N.jpg,m,2
1,1,4,study,0,male,White,male,White,neutral,,,,,m,740,True,False,,1,,,,False,23,WM-223,materials/cfd/Images/CFD/WM-223/CFD-WM-223-056-N.jpg,WM-040,materials/cfd/Images/CFD/WM-040/CFD-WM-040-022-N.jpg,m,2
1,1,5,study,0,female,Asian,male,White,angry,,,,,z,859,True,False,,1,,,,False,25,AF-226,materials/cfd/Images/CFD/AF-226/CFD-AF-226-251-N.jpg,WM-037,materials/cfd/Images/CFD/WM-037/CFD-WM-037-060-A.jpg,z,2
1,1,6,study,0,female,Black,female,Black,angry,,,,,z,1103,True,False,,1,,,,False,27,BF-047,materials/cfd/Images/CFD/BF-047/CFD-BF-047-003-N.jpg,BF-016,materials/cfd/Images/CFD/BF-016/CFD-BF-016-020-A.jpg,z,2
1,1,7,study,0,male,Black,female,Black,happy,,,,,m,730,True,False,,1,,,,False,29,BM-227,materials/cfd/Images/CFD/BM-227/CFD-BM-227-191-N.jpg,BF-019,materials/cfd/Images/CFD/BF-019/CFD-BF-019-022-HO.jpg,m,2
1,1,8,study,0,male,White,male,White,angry,,,,,m,905,True,False,,1,,,,False,31,WM-026,materials/cfd/Images/CFD/WM-026/CFD-WM-026-001-N.jpg,WM-017,materials/cfd/Images/CFD/WM-017/CFD-WM-017-011-A.jpg,m,2
1,1,9,study,0,male,Black,male,Black,happy,,,,,m,929,True,False,,1,,,,False,33,BM-209,materials/cfd/Images/CFD/BM-209/CFD-BM-209-088-N.jpg,BM-030,materials/cfd/Images/CFD/BM-030/CFD-BM-030-004-HO.jpg,m,2
1,1,10,study,0,male,White,female,Black,happy,,,,,m,767,True,False,,1,,,,False,35,WM-237,materials/cfd/Images/CFD/WM-237/CFD-WM-237-052-N.jpg,BF-017,materials/cfd/Images/CFD/BF-017/CFD-BF-017-004-HO.jpg,m,2
1,1,11,study,0,male,White,male,Black,angry,,,,,m,626,True,False,,1,,,,False,37,WM-245,materials/cfd/Images/CFD/WM-245/CFD-WM-245-123-N.jpg,BM-041,materials/cfd/Images/CFD/BM-041/CFD-BM-041-048-A.jpg,m,2
1,1,12,study,0,female,Black,female,Black,neutral,,,,,z,929,True,False,,1,,,,False,39,BF-217,materials/cfd/Images/CFD/BF-217/CFD-BF-217-189-N.jpg,BF-212,materials/cfd/Images/CFD/BF-212/CFD-BF-212-315-N.jpg,z,2
1,1,13,study,0,female,Asian,male,White,happy,,,,,z,800,True,False,,1,,,,False,41,AF-227,materials/cfd/Images/CFD/AF-227/CFD-AF-227-207-N.jpg,WM-015,materials/cfd/Images/CFD/WM-015/CFD-WM-015-005-HO.jpg,z,2
1,1,14,study,0,female,Black,male,Black,neutral,,,,,z,813,True,False,,1,,,,False,43,BF-254,materials/cfd/Images/CFD/BF-254/CFD-BF-254-201-N.jpg,BM-237,materials/cfd/Images/CFD/BM-237/CFD-BM-237-188-N.jpg,z,2
1,1,15,study,0,female,White,male,Black,happy,,,,,z,676,True,False,,1,,,,False,45,WF-012,materials/cfd/Images/CFD/WF-012/CFD-WF-012-002-N.jpg,BM-043,materials/cfd/Images/CFD/BM-043/CFD-BM-043-076-HO.jpg,z,2
1,1,16,study,0,female,Asian,male,White,happy,,,,,z,799,True,False,,1,,,,False,47,AF-224,materials/cfd/Images/CFD/AF-224/CFD-AF-224-026-N.jpg,WM-031,materials/cfd/Images/CFD/WM-031/CFD-WM-031-004-HO.jpg,z,2
1,1,17,study,0,male,Black,female,White,angry,,,,,m,840,True,False,,1,,,,False,49,BM-242,materials/cfd/Images/CFD/BM-242/CFD-BM-242-233-N.jpg,WF-002,materials/cfd/Images/CFD/WF-002/CFD-WF-002-033-A.jpg,m,2
1,1,18,study,0,female,Black,female,Black,happy,,,,,z,1070,True,False,,1,,,,False,51,BF-025,materials/cfd/Images/CFD/BF-025/CFD-BF-025-002-N.jpg,BF-041,materials/cfd/Images/CFD/BF-041/CFD-BF-041-004-HO.jpg,z,2
1,1,19,study,0,female,Asian,male,White,neutral,,,,,z,2000,True,False,,1,,,,False,53,AF-241,materials/cfd/Images/CFD/AF-241/CFD-AF-241-141-N.jpg,WM-011,materials/cfd/Images/CFD/WM-011/CFD-WM-011-002-N.jpg,z,2
1,1,20,study,0,male,White,female,Black,happy,,,,,m,686,True,False,,1,,,,False,55,WM-041,materials/cfd/Images/CFD/WM-041/CFD-WM-041-021-N.jpg,BF-044,materials/cfd/Images/CFD/BF-044/CFD-BF-044-007-HO.jpg,m,2
1,1,21,study,0,female,Latino,female,Black,happy,,,,,z,729,True,False,,1,,,,False,57,LF-254,materials/cfd/Images/CFD/LF-254/CFD-LF-254-125-N.jpg,BF-010,materials/cfd/Images/CFD/BF-010/CFD-BF-010-003-HO.jpg,z,2
1,1,22,study,0,male,Black,female,White,neutral,,,,,m,671,True,False,,1,,,,False,59,BM-004,materials/cfd/Images/CFD/BM-004/CFD-BM-004-002-N.jpg,WF-205,materials/cfd/Images/CFD/WF-205/CFD-WF-205-006-N.jpg,m,2
1,1,23,study,0,male,Asian,male,Black,happy,,,,,m,685,True,False,,1,,,,False,61,AM-216,materials/cfd/Images/CFD/AM-216/CFD-AM-216-114-N.jpg,BM-026,materials/cfd/Images/CFD/BM-026/CFD-BM-026-009-HO.jpg,m,2
1,1,24,study,0,female,Asian,male,White,neutral,,,,,z,796,True,False,,1,,,,False,63,AF-251,materials/cfd/Images/CFD/AF-251/CFD-AF-251-093-N.jpg,WM-016,materials/cfd/Images/CFD/WM-016/CFD-WM-016-001-N.jpg,z,2
1,1,25,study,0,male,Black,male,White,neutral,,,,,m,886,True,False,,1,,,,False,65,BM-010,materials/cfd/Images/CFD/BM-010/CFD-BM-010-003-N.jpg,WM-213,materials/cfd/Images/CFD/WM-213/CFD-WM-213-076-N.jpg,m,2
1,1,26,study,0,male,Black,female,Black,neutral,,,,,m,764,True,False,,1,,,,False,67,BM-200,materials/cfd/Images/CFD/BM-200/CFD-BM-200-046-N.jpg,BF-228,materials/cfd/Images/CFD/BF-228/CFD-BF-228-212-N.jpg,m,2
1,1,27,study,0,male,White,female,White,angry,,,,,m,815,True,False,,1,,,,False,69,WM-257,materials/cfd/Images/CFD/WM-257/CFD-WM-257-161-N.jpg,WF-019,materials/cfd/Images/CFD/WF-019/CFD-WF-019-015-A.jpg,m,2
1,1,28,study,0,male,Black,male,White,neutral,,,,,m,989,True,False,,1,,,,False,71,BM-233,materials/cfd/Images/CFD/BM-233/CFD-BM-233-285-N.jpg,WM-010,materials/cfd/Images/CFD/WM-010/CFD-WM-010-001-N.jpg,m,2
1,1,29,study,0,female,Asian,female,White,happy,,,,,z,711,True,False,,1,,,,False,73,AF-255,materials/cfd/Images/CFD/AF-255/CFD-AF-255-209-N.jpg,WF-013,materials/cfd/Images/CFD/WF-013/CFD-WF-013-006-HO.jpg,z,2
1,1,30,study,0,female,Black,female,Black,angry,,,,,z,777,True,False,,1,,,,False,75,BF-241,materials/cfd/Images/CFD/BF-241/CFD-BF-241-222-N.jpg,BF-035,materials/cfd/Images/CFD/BF-035/CFD-BF-035-009-A.jpg,z,2
1,1,31,study,1,male,White,male,White,angry,,,,,m,717,True,False,,1,,,,False,78,WM-219,materials/cfd/Images/CFD/WM-219/CFD-WM-219-008-N.jpg,WM-013,materials/cfd/Images/CFD/WM-013/CFD-WM-013-015-A.jpg,m,2
1,1,32,study,1,female,Asian,female,White,neutral,,,,,z,679,True,False,,1,,,,False,80,AF-250,materials/cfd/Images/CFD/AF-250/CFD-AF-250-200-N.jpg,WF-201,materials/cfd/Images/CFD/WF-201/CFD-WF-201-156-N.jpg,z,2
1,1,33,study,1,female,White,female,White,neutral,,,,,z,744,True,False,,1,,,,False,82,WF-024,materials/cfd/Images/CFD/WF-024/CFD-WF-024-003-N.jpg,WF-026,materials/cfd/Images/CFD/WF-026/CFD-WF-026-002-N.jpg,z,2
1,1,34,study,1,female,White,male,White,angry,,,,,z,940,True,False,,1,,,,False,84,WF-216,materials/cfd/Images/CFD/WF-216/CFD-WF-216-079-N.jpg,WM-002,materials/cfd/Images/CFD/WM-002/CFD-WM-002-017-A.jpg,z,2
1,1,35,study,1,male,White,female,White,neutral,,,,,m,803,True,False,,1,,,,False,86,WM-036,materials/cfd/Images/CFD/WM-036/CFD-WM-036-031-N.jpg,WF-232,materials/cfd/Images/CFD/WF-232/CFD-WF-232-161-N.jpg,m,2
1,1,36,study,1,female,Latino,male,Black,happy,,,,,z,910,True,False,,1,,,,False,88,LF-227,materials/cfd/Images/CFD/LF-227/CFD-LF-227-054-N.jpg,BM-009,materials/cfd/Images/CFD/BM-009/CFD-BM-009-003-HO.jpg,z,2
1,1,37,study,1,female,Black,male,Black,angry,,,,,m,2332,False,False,,1,,,,False,90,BF-029,materials/cfd/Images/CFD/BF-029/CFD-BF-029-031-N.jpg,BM-032,materials/cfd/Images/CFD/BM-032/CFD-BM-032-015-A.jpg,z,2
1,1,38,study,1,male,Latino,female,White,neutral,,,,,m,1262,True,False,,1,,,,False,92,LM-230,materials/cfd/Images/CFD/LM-230/CFD-LM-230-202-N.jpg,WF-033,materials/cfd/Images/CFD/WF-033/CFD-WF-033-002-N.jpg,m,2
1,1,39,study,1,female,White,male,Black,angry,,,,,z,888,True,False,,1,,,,False,94,WF-249,materials/cfd/Images/CFD/WF-249/CFD-WF-249-126-N.jpg,BM-036,materials/cfd/Images/CFD/BM-036/CFD-BM-036-037-A.jpg,z,2
1,1,40,study,1,female,Asian,female,White,angry,,,,,z,2359,True,False,,1,,,,False,96,AF-234,materials/cfd/Images/CFD/AF-234/CFD-AF-234-208-N.jpg,WF-030,materials/cfd/Images/CFD/WF-030/CFD-WF-030-033-A.jpg,z,2
1,1,41,study,1,male,Black,female,White,angry,,,,,m,1093,True,False,,1,,,,False,98,BM-215,materials/cfd/Images/CFD/BM-215/CFD-BM-215-155-N.jpg,WF-037,materials/cfd/Images/CFD/WF-037/CFD-WF-037-016-A.jpg,m,2
1,1,42,study,1,female,White,female,Black,happy,,,,,z,1178,True,False,,1,,,,False,100,WF-222,materials/cfd/Images/CFD/WF-222/CFD-WF-222-092-N.jpg,BF-050,materials/cfd/Images/CFD/BF-050/CFD-BF-050-004-HO.jpg,z,2
1,1,43,study,1,male,Latino,male,White,happy,,,,,m,769,True,False,,1,,,,False,102,LM-240,materials/cfd/Images/CFD/LM-240/CFD-LM-240-013-N.jpg,WM-006,materials/cfd/Images/CFD/WM-006/CFD-WM-006-010-HO.jpg,m,2
1,1,44,study,1,female,Black,female,White,neutral,,,,,z,1076,True,False,,1,,,,False,104,BF-243,materials/cfd/Images/CFD/BF-243/CFD-BF-243-164-N.jpg,WF-007,materials/cfd/Images/CFD/WF-007/CFD-WF-007-001-N.jpg,z,2
1,1,45,study,1,female,Black,female,White,neutral,,,,,z,1210,True,False,,1,,,,False,106,BF-005,materials/cfd/Images/CFD/BF-005/CFD-BF-005-001-N.jpg,WF-226,materials/cfd/Images/CFD/WF-226/CFD-WF-226-095-N.jpg,z,2
1,1,46,study,1,female,Black,male,Black,neutral,,,,,z,1115,True,False,,1,,,,False,108,BF-219,materials/cfd/Images/CFD/BF-219/CFD-BF-219-137-N.jpg,BM-243,materials/cfd/Images/CFD/BM-243/CFD-BM-243-218-N.jpg,z,2
1,1,47,study,1,male,White,male,White,happy,,,,,m,831,True,False,,1,,,,False,110,WM-204,materials/cfd/Images/CFD/WM-204/CFD-WM-204-031-N.jpg,WM-034,materials/cfd/Images/CFD/WM-034/CFD-WM-034-035-HO.jpg,m,2
1,1,48,study,1,male,Black,female,Black,angry,,,,,m,1817,True,False,,1,,,,False,112,BM-023,materials/cfd/Images/CFD/BM-023/CFD-BM-023-029-N.jpg,BF-038,materials/cfd/Images/CFD/BF-038/CFD-BF-038-029-A.jpg,m,2
1,1,49,study,1,male,Black,male,Black,neutral,,,,,m,766,True,False,,1,,,,False,114,BM-045,materials/cfd/Images/CFD/BM-045/CFD-BM-045-004-N.jpg,BM-228,materials/cfd/Images/CFD/BM-228/CFD-BM-228-145-N.jpg,m,2
1,1,50,study,1,male,White,male,White,angry,,,,,m,1140,True,False,,1,,,,False,116,WM-249,materials/cfd/Images/CFD/WM-249/CFD-WM-249-239-N.jpg,WM-022,materials/cfd/Images/CFD/WM-022/CFD-WM-022-008-A.jpg,m,2
1,1,51,study,1,male,White,male,Black,happy,,,,,m,923,True,False,,1,,,,False,118,WM-220,materials/cfd/Images/CFD/WM-220/CFD-WM-220-068-N.jpg,BM-001,materials/cfd/Images/CFD/BM-001/CFD-BM-001-011-HO.jpg,m,2
1,1,52,study,1,female,Asian,male,Black,happy,,,,,z,841,True,False,,1,,,,False,120,AF-247,materials/cfd/Images/CFD/AF-247/CFD-AF-247-278-N.jpg,BM-028,materials/cfd/Images/CFD/BM-028/CFD-BM-028-028-HO.jpg,z,2
1,1,53,study,1,male,Black,female,White,angry,,,,,m,1131,True,False,,1,,,,False,122,BM-241,materials/cfd/Images/CFD/BM-241/CFD-BM-241-235-N.jpg,WF-001,materials/cfd/Images/CFD/WF-001/CFD-WF-001-016-A.jpg,m,2
1,1,54,study,1,female,Black,male,White,angry,,,,,z,936,True,False,,1,,,,False,124,BF-043,materials/cfd/Images/CFD/BF-043/CFD-BF-043-003-N.jpg,WM-038,materials/cfd/Images/CFD/WM-038/CFD-WM-038-011-A.jpg,z,2
1,1,55,study,1,female,Black,male,White,neutral,,,,,z,622,True,False,,1,,,,False,126,BF-023,materials/cfd/Images/CFD/BF-023/CFD-BF-023-010-N.jpg,WM-224,materials/cfd/Images/CFD/WM-224/CFD-WM-224-197-N.jpg,z,2
1,1,56,study,1,female,Black,female,Black,angry,,,,,z,1000,True,False,,1,,,,False,128,BF-216,materials/cfd/Images/CFD/BF-216/CFD-BF-216-132-N.jpg,BF-048,materials/cfd/Images/CFD/BF-048/CFD-BF-048-038-A.jpg,z,2
1,1,57,study,1,male,White,male,Black,neutral,,,,,m,1124,True,False,,1,,,,False,130,WM-001,materials/cfd/Images/CFD/WM-001/CFD-WM-001-014-N.jpg,BM-239,materials/cfd/Images/CFD/BM-239/CFD-BM-239-136-N.jpg,m,2
1,1,58,study,1,male,Latino,female,White,happy,,,,,m,695,True,False,,1,,,,False,132,LM-236,materials/cfd/Images/CFD/LM-236/CFD-LM-236-163-N.jpg,WF-025,materials/cfd/Images/CFD/WF-025/CFD-WF-025-006-HO.jpg,m,2
1,1,59,study,1,male,Latino,male,White,angry,,,,,m,909,True,False,,1,,,,False,134,LM-220,materials/cfd/Images/CFD/LM-220/CFD-LM-220-329-N.jpg,WM-033,materials/cfd/Images/CFD/WM-033/CFD-WM-033-014-A.jpg,m,2
1,1,60,study,1,female,Black,female,White,angry,,,,,z,1512,True,False,,1,,,,False,136,BF-030,materials/cfd/Images/CFD/BF-030/CFD-BF-030-002-N.jpg,WF-036,materials/cfd/Images/CFD/WF-036/CFD-WF-036-015-A.jpg,z,2
1,1,61,test,0,female,Latino,,,,new,,,,m,1116,True,False,,1,,,,False,153,LF-246,materials/cfd/Images/CFD/LF-246/CFD-LF-246-129-N.jpg,,,m,2
1,1,62,test,0,male,Black,,,,old,angry,female,,z,1271,True,False,,1,,,,False,155,BM-023,materials/cfd/Images/CFD/BM-023/CFD-BM-023-029-N.jpg,,,z,2
1,1,63,test,0,female,Black,,,,old,neutral,female,,z,1405,True,False,,1,,,,False,157,BF-005,materials/cfd/Images/CFD/BF-005/CFD-BF-005-001-N.jpg,,,z,2
1,1,64,test,0,male,Asian,,,,new,,,,z,1497,False,False,,1,,,,False,159,AM-205,materials/cfd/Images/CFD/AM-205/CFD-AM-205-153-N.jpg,,,m,2
1,1,65,test,0,male,Black,,,,new,,,,m,1455,True,False,,1,,,,False,161,BM-011,materials/cfd/Images/CFD/BM-011/CFD-BM-011-016-N.jpg,,,m,2
1,1,66,test,0,male,Black,,,,old,happy,male,,z,1228,True,False,,1,,,,False,163,BM-209,materials/cfd/Images/CFD/BM-209/CFD-BM-209-088-N.jpg,,,z,2
1,1,67,test,0,male,White,,,,old,happy,male,,z,1430,True,False,,1,,,,False,165,WM-220,materials/cfd/Images/CFD/WM-220/CFD-WM-220-068-N.jpg,,,z,2
1,1,68,test,0,male,Latino,,,,new,,,,m,955,True,False,,1,,,,False,167,LM-210,materials/cfd/Images/CFD/LM-210/CFD-LM-210-156-N.jpg,,,m,2
1,1,69,test,0,male,Latino,,,,old,happy,female,,m,1357,False,False,,1,,,,False,169,LM-236,materials/cfd/Images/CFD/LM-236/CFD-LM-236-163-N.jpg,,,z,2
1,1,70,test,0,male,White,,,,new,,,,m,2069,True,False,,1,,,,False,171,WM-028,materials/cfd/Images/CFD/WM-028/CFD-WM-028-003-N.jpg,,,m,2
1,1,71,test,0,female,Black,,,,old,neutral,female,,z,1312,True,False,,1,,,,False,173,BF-217,materials/cfd/Images/CFD/BF-217/CFD-BF-217-189-N.jpg,,,z,2
1,1,72,test,0,female,Black,,,,old,angry,female,,z,1545,True,False,,1,,,,False,175,BF-216,materials/cfd/Images/CFD/BF-216/CFD-BF-216-132-N.jpg,,,z,2
1,1,73,test,0,male,Black,,,,old,angry,female,,m,2557,False,False,,1,,,,False,177,BM-241,materials/cfd/Images/CFD/BM-241/CFD-BM-241-235-N.jpg,,,z,2
1,1,74,test,0,female,White,,,,old,happy,male,,z,1555,True,False,,1,,,,False,179,WF-012,materials/cfd/Images/CFD/WF-012/CFD-WF-012-002-N.jpg,,,z,2
1,1,75,test,0,female,Latino,,,,new,,,,m,2209,True,False,,1,,,,False,181,LF-249,materials/cfd/Images/CFD/LF-249/CFD-LF-249-132-N.jpg,,,m,2
1,1,76,test,0,male,Latino,,,,new,,,,m,1118,True,False,,1,,,,False,183,LM-242,materials/cfd/Images/CFD/LM-242/CFD-LM-242-002-N.jpg,,,m,2
1,1,77,test,0,male,Black,,,,new,,,,z,1812,False,False,,1,,,,False,185,BM-024,materials/cfd/Images/CFD/BM-024/CFD-BM-024-001-N.jpg,,,m,2
1,1,78,test,0,male,Black,,,,new,,,,,,False,True,,1,,,,False,187,BM-229,materials/cfd/Images/CFD/BM-229/CFD-BM-229-209-N.jpg,,,m,2
1,1,79,test,0,male,Latino,,,,old,angry,male,,m,1266,False,False,,1,,,,False,189,LM-220,materials/cfd/Images/CFD/LM-220/CFD-LM-220-329-N.jpg,,,z,2
1,1,80,test,0,male,Black,,,,old,angry,female,,z,1284,True,False,,1,,,,False,191,BM-215,materials/cfd/Images/CFD/BM-215/CFD-BM-215-155-N.jpg,,,z,2
1,1,81,test,0,female,Asian,,,,old,angry,female,,z,1257,True,False,,1,,,,False,193,AF-234,materials/cfd/Images/CFD/AF-234/CFD-AF-234-208-N.jpg,,,z,2
1,1,82,test,0,male,Asian,,,,new,,,,z,2001,False,False,,1,,,,False,195,AM-252,materials/cfd/Images/CFD/AM-252/CFD-AM-252-114-N.jpg,,,m,2
1,1,83,test,0,female,Black,,,,old,angry,female,,z,1360,True,False,,1,,,,False,197,BF-047,materials/cfd/Images/CFD/BF-047/CFD-BF-047-003-N.jpg,,,z,2
1,1,84,test,0,male,Black,,,,new,,,,m,1736,True,False,,1,,,,False,199,BM-033,materials/cfd/Images/CFD/BM-033/CFD-BM-033-003-N.jpg,,,m,2
1,1,85,test,0,male,White,,,,new,,,,m,2071,True,False,,1,,,,False,201,WM-231,materials/cfd/Images/CFD/WM-231/CFD-WM-231-112-N.jpg,,,m,2
1,1,86,test,0,female,Asian,,,,old,happy,male,,z,801,True,False,,1,,,,False,203,AF-227,materials/cfd/Images/CFD/AF-227/CFD-AF-227-207-N.jpg,,,z,2
1,1,87,test,0,female,Latino,,,,new,,,,m,881,True,False,,1,,,,False,205,LF-234,materials/cfd/Images/CFD/LF-234/CFD-LF-234-139-N.jpg,,,m,2
1,1,88,test,0,female,Latino,,,,new,,,,m,626,True,False,,1,,,,False,207,LF-215,materials/cfd/Images/CFD/LF-215/CFD-LF-215-157-N.jpg,,,m,2
1,1,89,test,0,male,Black,,,,old,neutral,male,,m,1149,False,False,,1,,,,False,209,BM-010,materials/cfd/Images/CFD/BM-010/CFD-BM-010-003-N.jpg,,,z,2
1,1,90,test,0,female,Black,,,,new,,,,m,940,True,False,,1,,,,False,211,BF-003,materials/cfd/Images/CFD/BF-003/CFD-BF-003-003-N.jpg,,,m,2
1,1,91,test,0,male,White,,,,old,angry,male,,m,652,False,False,,1,,,,False,213,WM-249,materials/cfd/Images/CFD/WM-249/CFD-WM-249-239-N.jpg,,,z,2
1,1,92,test,0,male,Latino,,,,new,,,,z,1352,False,False,,1,,,,False,215,LM-212,materials/cfd/Images/CFD/LM-212/CFD-LM-212-143-N.jpg,,,m,2
1,1,93,test,0,male,Black,,,,old,happy,female,,m,1097,False,False,,1,,,,False,217,BM-227,materials/cfd/Images/CFD/BM-227/CFD-BM-227-191-N.jpg,,,z,2
1,1,94,test,0,female,Black,,,,new,,,,m,1019,True,False,,1,,,,False,219,BF-237,materials/cfd/Images/CFD/BF-237/CFD-BF-237-172-N.jpg,,,m,2
1,1,95,test,0,female,Latino,,,,new,,,,z,2081,False,False,,1,,,,False,221,LF-241,materials/cfd/Images/CFD/LF-241/CFD-LF-241-188-N.jpg,,,m,2
1,1,96,test,0,male,Asian,,,,new,,,,m,825,True,False,,1,,,,False,223,AM-247,materials/cfd/Images/CFD/AM-247/CFD-AM-247-165-N.jpg,,,m,2
1,1,97,test,0,female,Black,,,,new,,,,z,1280,False,False,,1,,,,False,225,BF-247,materials/cfd/Images/CFD/BF-247/CFD-BF-247-179-N.jpg,,,m,2
1,1,98,test,0,male,Black,,,,old,neutral,male,,z,804,True,False,,1,,,,False,227,BM-233,materials/cfd/Images/CFD/BM-233/CFD-BM-233-285-N.jpg,,,z,2
1,1,99,test,0,female,White,,,,new,,,,m,1033,True,False,,1,,,,False,229,WF-008,materials/cfd/Images/CFD/WF-008/CFD-WF-008-002-N.jpg,,,m,2
1,1,100,test,0,female,Black,,,,old,neutral,female,,z,1784,True,False,,1,,,,False,231,BF-243,materials/cfd/Images/CFD/BF-243/CFD-BF-243-164-N.jpg,,,z,2
1,1,101,test,1,female,Asian,,,,old,happy,male,,z,1303,True,False,,1,,,,False,234,AF-224,materials/cfd/Images/CFD/AF-224/CFD-AF-224-026-N.jpg,,,z,2
1,1,102,test,1,female,White,,,,old,angry,male,,z,967,True,False,,1,,,,False,236,WF-216,materials/cfd/Images/CFD/WF-216/CFD-WF-216-079-N.jpg,,,z,2
1,1,103,test,1,male,White,,,,old,happy,female,,m,1077,False,False,,1,,,,False,238,WM-237,materials/cfd/Images/CFD/WM-237/CFD-WM-237-052-N.jpg,,,z,2
1,1,104,test,1,male,Latino,,,,new,,,,m,2477,True,False,,1,,,,False,240,LM-226,materials/cfd/Images/CFD/LM-226/CFD-LM-226-175-N.jpg,,,m,2
1,1,105,test,1,female,Asian,,,,old,neutral,female,,m,1700,False,False,,1,,,,False,242,AF-250,materials/cfd/Images/CFD/AF-250/CFD-AF-250-200-N.jpg,,,z,2
1,1,106,test,1,male,White,,,,new,,,,m,2104,True,False,,1,,,,False,244,WM-235,materials/cfd/Images/CFD/WM-235/CFD-WM-235-147-N.jpg,,,m,2
1,1,107,test,1,female,White,,,,old,happy,female,,z,1500,True,False,,1,,,,False,246,WF-222,materials/cfd/Images/CFD/WF-222/CFD-WF-222-092-N.jpg,,,z,2
1,1,108,test,1,female,White,,,,old,neutral,female,,z,2011,True,False,,1,,,,False,248,WF-024,materials/cfd/Images/CFD/WF-024/CFD-WF-024-003-N.jpg,,,z,2
1,1,109,test,1,female,Asian,,,,new,,,,m,2800,True,False,,1,,,,False,250,AF-238,materials/cfd/Images/CFD/AF-238/CFD-AF-238-185-N.jpg,,,m,2
1,1,110,test,1,male,White,,,,old,neutral,male,,m,1861,False,False,,1,,,,False,252,WM-001,materials/cfd/Images/CFD/WM-001/CFD-WM-001-014-N.jpg,,,z,2
1,1,111,test,1,female,White,,,,new,,,,m,1763,True,False,,1,,,,False,254,WF-202,materials/cfd/Images/CFD/WF-202/CFD-WF-202-056-N.jpg,,,m,2
1,1,112,test,1,female,Asian,,,,old,neutral,male,,z,1184,True,False,,1,,,,False,256,AF-251,materials/cfd/Images/CFD/AF-251/CFD-AF-251-093-N.jpg,,,z,2
1,1,113,test,1,female,White,,,,new,,,,z,1645,False,False,,1,,,,False,258,WF-038,materials/cfd/Images/CFD/WF-038/CFD-WF-038-021-N.jpg,,,m,2
1,1,114,test,1,male,White,,,,old,angry,male,,z,1211,True,False,,1,,,,False,260,WM-026,materials/cfd/Images/CFD/WM-026/CFD-WM-026-001-N.jpg,,,z,2
1,1,115,test,1,male,White,,,,old,angry,male,,m,1984,False,False,,1,,,,False,262,WM-219,materials/cfd/Images/CFD/WM-219/CFD-WM-219-008-N.jpg,,,z,2
1,1,116,test,1,female,Black,,,,old,angry,female,,m,1405,False,False,,1,,,,False,264,BF-030,materials/cfd/Images/CFD/BF-030/CFD-BF-030-002-N.jpg,,,z,2
1,1,117,test,1,male,Asian,,,,new,,,,m,2304,True,False,,1,,,,False,266,AM-237,materials/cfd/Images/CFD/AM-237/CFD-AM-237-154-N.jpg,,,m,2
1,1,118,test,1,male,Latino,,,,new,,,,m,2687,True,False,,1,,,,False,268,LM-249,materials/cfd/Images/CFD/LM-249/CFD-LM-249-001-N.jpg,,,m,2
1,1,119,test,1,male,White,,,,new,,,,m,2645,True,False,,1,,,,False,270,WM-210,materials/cfd/Images/CFD/WM-210/CFD-WM-210-057-N.jpg,,,m,2
1,1,120,test,1,male,Latino,,,,old,neutral,female,,,,False,True,,1,,,,False,272,LM-230,materials/cfd/Images/CFD/LM-230/CFD-LM-230-202-N.jpg,,,z,2
1,1,121,test,1,male,Latino,,,,old,happy,male,,m,894,False,False,,1,,,,False,274,LM-240,materials/cfd/Images/CFD/LM-240/CFD-LM-240-013-N.jpg,,,z,2
1,1,122,test,1,female,Black,,,,old,happy,female,,z,1768,True,False,,1,,,,False,276,BF-025,materials/cfd/Images/CFD/BF-025/CFD-BF-025-002-N.jpg,,,z,2
1,1,123,test,1,female,White,,,,new,,,,z,936,False,False,,1,,,,False,278,WF-209,materials/cfd/Images/CFD/WF-209/CFD-WF-209-052-N.jpg,,,m,2
1,1,124,test,1,male,Asian,,,,new,,,,m,884,True,False,,1,,,,False,280,AM-211,materials/cfd/Images/CFD/AM-211/CFD-AM-211-052-N.jpg,,,m,2
1,1,125,test,1,female,White,,,,new,,,,m,641,True,False,,1,,,,False,282,WF-208,materials/cfd/Images/CFD/WF-208/CFD-WF-208-068-N.jpg,,,m,2
1,1,126,test,1,male,White,,,,new,,,,z,1225,False,False,,1,,,,False,284,WM-252,materials/cfd/Images/CFD/WM-252/CFD-WM-252-224-N.jpg,,,m,2
1,1,127,test,1,male,Latino,,,,new,,,,m,1013,True,False,,1,,,,False,286,LM-203,materials/cfd/Images/CFD/LM-203/CFD-LM-203-026-N.jpg,,,m,2
1,1,128,test,1,female,Latino,,,,old,happy,female,,z,853,True,False,,1,,,,False,288,LF-254,materials/cfd/Images/CFD/LF-254/CFD-LF-254-125-N.jpg,,,z,2
1,1,129,test,1,female,Latino,,,,old,happy,male,,m,971,False,False,,1,,,,False,290,LF-227,materials/cfd/Images/CFD/LF-227/CFD-LF-227-054-N.jpg,,,z,2
1,1,130,test,1,female,Black,,,,new,,,,m,969,True,False,,1,,,,False,292,BF-223,materials/cfd/Images/CFD/BF-223/CFD-BF-223-250-N.jpg,,,m,2
1,1,131,test,1,female,Black,,,,new,,,,m,1459,True,False,,1,,,,False,294,BF-034,materials/cfd/Images/CFD/BF-034/CFD-BF-034-002-N.jpg,,,m,2
1,1,132,test,1,male,Black,,,,old,neutral,female,,z,1140,True,False,,1,,,,False,296,BM-200,materials/cfd/Images/CFD/BM-200/CFD-BM-200-046-N.jpg,,,z,2
1,1,133,test,1,male,Asian,,,,old,neutral,female,,z,1109,True,False,,1,,,,False,298,AM-206,materials/cfd/Images/CFD/AM-206/CFD-AM-206-086-N.jpg,,,z,2
1,1,134,test,1,female,Asian,,,,old,neutral,male,,z,1241,True,False,,1,,,,False,300,AF-241,materials/cfd/Images/CFD/AF-241/CFD-AF-241-141-N.jpg,,,z,2
1,1,135,test,1,male,White,,,,old,angry,male,,z,1151,True,False,,1,,,,False,302,WM-245,materials/cfd/Images/CFD/WM-245/CFD-WM-245-123-N.jpg,,,z,2
1,1,136,test,1,female,Black,,,,old,angry,male,,z,984,True,False,,1,,,,False,304,BF-029,materials/cfd/Images/CFD/BF-029/CFD-BF-029-031-N.jpg,,,z,2
1,1,137,test,1,male,Latino,,,,new,,,,m,1365,True,False,,1,,,,False,306,LM-201,materials/cfd/Images/CFD/LM-201/CFD-LM-201-057-N.jpg,,,m,2
1,1,138,test,1,male,Black,,,,old,neutral,male,,m,1045,False,False,,1,,,,False,308,BM-045,materials/cfd/Images/CFD/BM-045/CFD-BM-045-004-N.jpg,,,z,2
1,1,139,test,1,male,Black,,,,old,neutral,female,,m,1160,False,False,,1,,,,False,310,BM-004,materials/cfd/Images/CFD/BM-004/CFD-BM-004-002-N.jpg,,,z,2
1,1,140,test,1,male,Black,,,,old,angry,female,,m,2505,False,False,,1,,,,False,312,BM-242,materials/cfd/Images/CFD/BM-242/CFD-BM-242-233-N.jpg,,,z,2
1,1,141,test,2,female,Asian,,,,old,happy,female,,z,2131,True,False,,1,,,,False,315,AF-255,materials/cfd/Images/CFD/AF-255/CFD-AF-255-209-N.jpg,,,z,2
1,1,142,test,2,male,Black,,,,new,,,,m,720,True,False,,1,,,,False,317,BM-217,materials/cfd/Images/CFD/BM-217/CFD-BM-217-082-N.jpg,,,m,2
1,1,143,test,2,female,Latino,,,,new,,,,m,832,True,False,,1,,,,False,319,LF-240,materials/cfd/Images/CFD/LF-240/CFD-LF-240-199-N.jpg,,,m,2
1,1,144,test,2,male,White,,,,old,happy,female,,m,1918,False,False,,1,,,,False,321,WM-041,materials/cfd/Images/CFD/WM-041/CFD-WM-041-021-N.jpg,,,z,2
1,1,145,test,2,female,Black,,,,new,,,,m,911,True,False,,1,,,,False,323,BF-238,materials/cfd/Images/CFD/BF-238/CFD-BF-238-190-N.jpg,,,m,2
1,1,146,test,2,male,Asian,,,,new,,,,m,1871,True,False,,1,,,,False,325,AM-231,materials/cfd/Images/CFD/AM-231/CFD-AM-231-136-N.jpg,,,m,2
1,1,147,test,2,male,White,,,,old,neutral,male,,m,817,False,False,,1,,,,False,327,WM-223,materials/cfd/Images/CFD/WM-223/CFD-WM-223-056-N.jpg,,,z,2
1,1,148,test,2,female,White,,,,new,,,,z,1161,False,False,,1,,,,False,329,WF-029,materials/cfd/Images/CFD/WF-029/CFD-WF-029-002-N.jpg,,,m,2
1,1,149,test,2,male,White,,,,new,,,,m,1016,True,False,,1,,,,False,331,WM-238,materials/cfd/Images/CFD/WM-238/CFD-WM-238-020-N.jpg,,,m,2
1,1,150,test,2,female,Latino,,,,new,,,,m,1025,True,False,,1,,,,False,333,LF-201,materials/cfd/Images/CFD/LF-201/CFD-LF-201-035-N.jpg,,,m,2
1,1,151,test,2,female,Black,,,,old,angry,male,,z,1464,True,False,,1,,,,False,335,BF-043,materials/cfd/Images/CFD/BF-043/CFD-BF-043-003-N.jpg,,,z,2
1,1,152,test,2,female,Asian,,,,old,angry,male,,z,937,True,False,,1,,,,False,337,AF-226,materials/cfd/Images/CFD/AF-226/CFD-AF-226-251-N.jpg,,,z,2
1,1,153,test,2,male,White,,,,old,angry,female,,m,1019,False,False,,1,,,,False,339,WM-257,materials/cfd/Images/CFD/WM-257/CFD-WM-257-161-N.jpg,,,z,2
1,1,154,test,2,female,Black,,,,old,neutral,male,,m,2800,False,False,,1,,,,False,341,BF-219,materials/cfd/Images/CFD/BF-219/CFD-BF-219-137-N.jpg,,,z,2
1,1,155,test,2,female,Asian,,,,old,happy,male,,z,1201,True,False,,1,,,,False,343,AF-247,materials/cfd/Images/CFD/AF-247/CFD-AF-247-278-N.jpg,,,z,2
1,1,156,test,2,male,Asian,,,,new,,,,m,876,True,False,,1,,,,False,345,AM-227,materials/cfd/Images/CFD/AM-227/CFD-AM-227-184-N.jpg,,,m,2
1,1,157,test,2,male,Black,,,,new,,,,m,1320,True,False,,1,,,,False,347,BM-002,materials/cfd/Images/CFD/BM-002/CFD-BM-002-013-N.jpg,,,m,2
1,1,158,test,2,male,Black,,,,new,,,,m,1024,True,False,,1,,,,False,349,BM-226,materials/cfd/Images/CFD/BM-226/CFD-BM-226-276-N.jpg,,,m,2
1,1,159,test,2,female,White,,,,old,angry,male,,m,1062,False,False,,1,,,,False,351,WF-249,materials/cfd/Images/CFD/WF-249/CFD-WF-249-126-N.jpg,,,z,2
1,1,160,test,2,female,Latino,,,,new,,,,z,1744,False,False,,1,,,,False,353,LF-250,materials/cfd/Images/CFD/LF-250/CFD-LF-250-169-N.jpg,,,m,2
1,1,161,test,2,male,Asian,,,,new,,,,m,920,True,False,,1,,,,False,355,AM-218,materials/cfd/Images/CFD/AM-218/CFD-AM-218-085-N.jpg,,,m,2
1,1,162,test,2,female,Black,,,,new,,,,m,1165,True,False,,1,,,,False,357,BF-224,materials/cfd/Images/CFD/BF-224/CFD-BF-224-002-N.jpg,,,m,2
1,1,163,test,2,male,Black,,,,new,,,,m,793,True,False,,1,,,,False,359,BM-025,materials/cfd/Images/CFD/BM-025/CFD-BM-025-035-N.jpg,,,m,2
1,1,164,test,2,female,Asian,,,,new,,,,m,1057,True,False,,1,,,,False,361,AF-253,materials/cfd/Images/CFD/AF-253/CFD-AF-253-130-N.jpg,,,m,2
1,1,165,test,2,male,White,,,,old,neutral,female,,,,False,True,,1,,,,False,363,WM-036,materials/cfd/Images/CFD/WM-036/CFD-WM-036-031-N.jpg,,,z,2
1,1,166,test,2,female,Black,,,,old,neutral,male,,m,1128,False,False,,1,,,,False,365,BF-023,materials/cfd/Images/CFD/BF-023/CFD-BF-023-010-N.jpg,,,z,2
1,1,167,test,2,female,Latino,,,,new,,,,m,2980,True,False,,1,,,,False,367,LF-231,materials/cfd/Images/CFD/LF-231/CFD-LF-231-260-N.jpg,,,m,2
1,1,168,test,2,female,Black,,,,new,,,,,,False,True,,1,,,,False,369,BF-007,materials/cfd/Images/CFD/BF-007/CFD-BF-007-001-N.jpg,,,m,2
1,1,169,test,2,female,Black,,,,new,,,,z,1107,False,False,,1,,,,False,371,BF-013,materials/cfd/Images/CFD/BF-013/CFD-BF-013-001-N.jpg,,,m,2
1,1,170,test,2,male,Asian,,,,old,happy,male,,m,980,False,False,,1,,,,False,373,AM-216,materials/cfd/Images/CFD/AM-216/CFD-AM-216-114-N.jpg,,,z,2
1,1,171,test,2,female,Latino,,,,old,happy,female,,m,1412,False,False,,1,,,,False,375,LF-200,materials/cfd/Images/CFD/LF-200/CFD-LF-200-058-N.jpg,,,z,2
1,1,172,test,2,male,White,,,,old,happy,male,,m,1649,False,False,,1,,,,False,377,WM-204,materials/cfd/Images/CFD/WM-204/CFD-WM-204-031-N.jpg,,,z,2
1,1,173,test,2,male,Black,,,,new,,,,z,1716,False,False,,1,,,,False,379,BM-003,materials/cfd/Images/CFD/BM-003/CFD-BM-003-003-N.jpg,,,m,2
1,1,174,test,2,female,White,,,,new,,,,z,1528,False,False,,1,,,,False,381,WF-207,materials/cfd/Images/CFD/WF-207/CFD-WF-207-014-N.jpg,,,m,2
1,1,175,test,2,female,Asian,,,,new,,,,m,1847,True,False,,1,,,,False,383,AF-248,materials/cfd/Images/CFD/AF-248/CFD-AF-248-148-N.jpg,,,m,2
1,1,176,test,2,female,Black,,,,old,neutral,male,,m,2019,False,False,,1,,,,False,385,BF-254,materials/cfd/Images/CFD/BF-254/CFD-BF-254-201-N.jpg,,,z,2
1,1,177,test,2,female,Black,,,,old,angry,female,,z,1048,True,False,,1,,,,False,387,BF-241,materials/cfd/Images/CFD/BF-241/CFD-BF-241-222-N.jpg,,,z,2
1,1,178,test,2,male,Latino,,,,old,happy,female,,m,844,False,False,,1,,,,False,389,LM-235,materials/cfd/Images/CFD/LM-235/CFD-LM-235-231-N.jpg,,,z,2
1,1,179,test,2,female,Black,,,,new,,,,m,821,True,False,,1,,,,False,391,BF-215,materials/cfd/Images/CFD/BF-215/CFD-BF-215-177-N.jpg,,,m,2
1,1,180,test,2,female,White,,,,new,,,,m,763,True,False,,1,,,,False,393,WF-250,materials/cfd/Images/CFD/WF-250/CFD-WF-250-167-N.jpg,,,m,2
2,1,1,study,0,female,White,male,Black,angry,,,,,z,811,True,False,,1,,,,False,17,WF-249,materials/cfd/Images/CFD/WF-249/CFD-WF-249-126-N.jpg,BM-025,materials/cfd/Images/CFD/BM-025/CFD-BM-025-045-A.jpg,z,1
2,1,2,study,0,male,Black,female,White,neutral,,,,,m,680,True,False,,1,,,,False,19,BM-210,materials/cfd/Images/CFD/BM-210/CFD-BM-210-148-N.jpg,WF-228,materials/cfd/Images/CFD/WF-228/CFD-WF-228-196-N.jpg,m,1
2,1,3,study,0,female,Black,male,White,neutral,,,,,z,1332,True,False,,1,,,,False,21,BF-037,materials/cfd/Images/CFD/BF-037/CFD-BF-037-022-N.jpg,WM-015,materials/cfd/Images/CFD/WM-015/CFD-WM-015-002-N.jpg,z,1
2,1,4,study,0,male,Asian,male,White,happy,,,,,m,773,True,False,,1,,,,False,23,AM-213,materials/cfd/Images/CFD/AM-213/CFD-AM-213-056-N.jpg,WM-033,materials/cfd/Images/CFD/WM-033/CFD-WM-033-007-HO.jpg,m,1
2,1,5,study,0,male,Black,male,White,angry,,,,,m,629,True,False,,1,,,,False,25,BM-213,materials/cfd/Images/CFD/BM-213/CFD-BM-213-134-N.jpg,WM-020,materials/cfd/Images/CFD/WM-020/CFD-WM-020-008-A.jpg,m,1
2,1,6,study,0,male,White,female,White,neutral,,,,,m,608,True,False,,1,,,,False,27,WM-031,materials/cfd/Images/CFD/WM-031/CFD-WM-031-003-N.jpg,WF-203,materials/cfd/Images/CFD/WF-203/CFD-WF-203-229-N.jpg,m,1
2,1,7,study,0,female,Black,male,Black,neutral,,,,,z,578,True,False,,1,,,,False,29,BF-215,materials/cfd/Images/CFD/BF-215/CFD-BF-215-177-N.jpg,BM-238,materials/cfd/Images/CFD/BM-238/CFD-BM-238-242-N.jpg,z,1
2,1,8,study,0,female,Asian,female,White,happy,,,,,z,823,True,False,,1,,,,False,31,AF-236,materials/cfd/Images/CFD/AF-236/CFD-AF-236-145-N.jpg,WF-014,materials/cfd/Images/CFD/WF-014/CFD-WF-014-004-HO.jpg,z,1
2,1,9,study,0,female,Latino,male,Black,happy,,,,,z,705,True,False,,1,,,,False,33,LF-254,materials/cfd/Images/CFD/LF-254/CFD-LF-254-125-N.jpg,BM-013,materials/cfd/Images/CFD/BM-013/CFD-BM-013-004-HO.jpg,z,1
2,1,10,study,0,female,White,female,White,neutral,,,,,z,623,True,False,,1,,,,False,35,WF-218,materials/cfd/Images/CFD/WF-218/CFD-WF-218-087-N.jpg,WF-236,materials/cfd/Images/CFD/WF-236/CFD-WF-236-107-N.jpg,z,1
2,1,11,study,0,male,White,male,Black,neutral,,,,,m,588,True,False,,1,,,,False,37,WM-023,materials/cfd/Images/CFD/WM-023/CFD-WM-023-001-N.jpg,BM-217,materials/cfd/Images/CFD/BM-217/CFD-BM-217-082-N.jpg,m,1
2,1,12,study,0,male,White,female,Black,happy,,,,,m,647,True,False,,1,,,,False,39,WM-029,materials/cfd/Images/CFD/WM-029/CFD-WM-029-023-N.jpg,BF-039,materials/cfd/Images/CFD/BF-039/CFD-BF-039-033-HO.jpg,m,1
2,1,13,study,0,male,White,female,Black,happy,,,,,m,552,True,False,,1,,,,False,41,WM-244,materials/cfd/Images/CFD/WM-244/CFD-WM-244-003-N.jpg,BF-023,materials/cfd/Images/CFD/BF-023/CFD-BF-023-003-HO.jpg,m,1
2,1,14,study,0,female,Latino,male,White,angry,,,,,z,620,True,False,,1,,,,False,43,LF-248,materials/cfd/Images/CFD/LF-248/CFD-LF-248-160-N.jpg,WM-006,materials/cfd/Images/CFD/WM-006/CFD-WM-006-022-A.jpg,z,1
2,1,15,study,0,female,White,female,White,angry,,,,,z,529,True,False,,1,,,,False,45,WF-219,materials/cfd/Images/CFD/WF-219/CFD-WF-219-038-N.jpg,WF-029,materials/cfd/Images/CFD/WF-029/CFD-WF-029-026-A.jpg,z,1
2,1,16,study,0,female,Asian,male,Black,angry,,,,,z,592,True,False,,1,,,,False,47,AF-223,materials/cfd/Images/CFD/AF-223/CFD-AF-223-183-N.jpg,BM-005,materials/cfd/Images/CFD/BM-005/CFD-BM-005-010-A.jpg,z,1
2,1,17,study,0,male,Asian,male,Black,happy,,,,,m,574,True,False,,1,,,,False,49,AM-216,materials/cfd/Images/CFD/AM-216/CFD-AM-216-114-N.jpg,BM-015,materials/cfd/Images/CFD/BM-015/CFD-BM-015-016-HO.jpg,m,1
2,1,18,study,0,female,Asian,female,White,happy,,,,,z,580,True,False,,1,,,,False,51,AF-224,materials/cfd/Images/CFD/AF-224/CFD-AF-224-026-N.jpg,WF-027,materials/cfd/Images/CFD/WF-027/CFD-WF-027-021-HO.jpg,z,1
2,1,19,study,0,female,White,female,White,neutral,,,,,z,607,True,False,,1,,,,False,53,WF-034,materials/cfd/Images/CFD/WF-034/CFD-WF-034-006-N.jpg,WF-248,materials/cfd/Images/CFD/WF-248/CFD-WF-248-129-N.jpg,z,1
2,1,20,study,0,male,Black,male,Black,angry,,,,,m,588,True,False,,1,,,,False,55,BM-202,materials/cfd/Images/CFD/BM-202/CFD-BM-202-063-N.jpg,BM-031,materials/cfd/Images/CFD/BM-031/CFD-BM-031-030-A.jpg,m,1
2,1,21,study,0,male,Latino,male,Black,happy,,,,,m,511,True,False,,1,,,,False,57,LM-248,materials/cfd/Images/CFD/LM-248/CFD-LM-248-089-N.jpg,BM-018,materials/cfd/Images/CFD/BM-018/CFD-BM-018-007-HO.jpg,m,1
2,1,22,study,0,male,White,female,Black,neutral,,,,,m,514,True,False,,1,,,,False,59,WM-003,materials/cfd/Images/CFD/WM-003/CFD-WM-003-002-N.jpg,BF-200,materials/cfd/Images/CFD/BF-200/CFD-BF-200-080-N.jpg,m,1
2,1,23,study,0,male,White,female,Black,angry,,,,,m,489,True,False,,1,,,,False,61,WM-035,materials/cfd/Images/CFD/WM-035/CFD-WM-035-032-N.jpg,BF-013,materials/cfd/Images/CFD/BF-013/CFD-BF-013-017-A.jpg,m,1
2,1,24,study,0,female,Asian,female,Black,angry,,,,,z,581,True,False,,1,,,,False,63,AF-209,materials/cfd/Images/CFD/AF-209/CFD-AF-209-006-N.jpg,BF-048,materials/cfd/Images/CFD/BF-048/CFD-BF-048-038-A.jpg,z,1
2,1,25,study,0,male,Latino,female,Black,happy,,,,,m,727,True,False,,1,,,,False,65,LM-203,materials/cfd/Images/CFD/LM-203/CFD-LM-203-026-N.jpg,BF-006,materials/cfd/Images/CFD/BF-006/CFD-BF-006-006-HO.jpg,m,1
2,1,26,study,0,male,White,female,Black,happy,,,,,m,502,True,False,,1,,,,False,67,WM-004,materials/cfd/Images/CFD/WM-004/CFD-WM-004-010-N.jpg,BF-040,materials/cfd/Images/CFD/BF-040/CFD-BF-040-043-HO.jpg,m,1
2,1,27,study,0,female,Asian,female,White,neutral,,,,,z,474,True,False,,1,,,,False,69,AF-216,materials/cfd/Images/CFD/AF-216/CFD-AF-216-106-N.jpg,WF-033,materials/cfd/Images/CFD/WF-033/CFD-WF-033-002-N.jpg,z,1
2,1,28,study,0,female,Asian,male,Black,neutral,,,,,z,588,True,False,,1,,,,False,71,AF-237,materials/cfd/Images/CFD/AF-237/CFD-AF-237-223-N.jpg,BM-249,materials/cfd/Images/CFD/BM-249/CFD-BM-249-235-N.jpg,z,1
2,1,29,study,0,male,Asian,male,Black,angry,,,,,m,1301,True,False,,1,,,,False,73,AM-221,materials/cfd/Images/CFD/AM-221/CFD-AM-221-184-N.jpg,BM-032,materials/cfd/Images/CFD/BM-032/CFD-BM-032-015-A.jpg,m,1
2,1,30,study,0,female,Latino,male,Black,angry,,,,,z,612,True,False,,1,,,,False,75,LF-221,materials/cfd/Images/CFD/LF-221/CFD-LF-221-002-N.jpg,BM-033,materials/cfd/Images/CFD/BM-033/CFD-BM-033-032-A.jpg,z,1
2,1,31,study,1,male,Black,male,Black,neutral,,,,,m,673,True,False,,1,,,,False,78,BM-236,materials/cfd/Images/CFD/BM-236/CFD-BM-236-248-N.jpg,BM-223,materials/cfd/Images/CFD/BM-223/CFD-BM-223-171-N.jpg,m,1
2,1,32,study,1,female,Asian,male,White,neutral,,,,,z,779,True,False,,1,,,,False,80,AF-220,materials/cfd/Images/CFD/AF-220/CFD-AF-220-107-N.jpg,WM-252,materials/cfd/Images/CFD/WM-252/CFD-WM-252-224-N.jpg,z,1
2,1,33,study,1,male,Black,female,Black,angry,,,,,m,546,True,False,,1,,,,False,82,BM-002,materials/cfd/Images/CFD/BM-002/CFD-BM-002-013-N.jpg,BF-036,materials/cfd/Images/CFD/BF-036/CFD-BF-036-020-A.jpg,m,1
2,1,34,study,1,female,Black,female,Black,happy,,,,,z,600,True,False,,1,,,,False,84,BF-224,materials/cfd/Images/CFD/BF-224/CFD-BF-224-002-N.jpg,BF-031,materials/cfd/Images/CFD/BF-031/CFD-BF-031-051-HO.jpg,z,1
2,1,35,study,1,male,Asian,female,Black,happy,,,,,m,1182,True,False,,1,,,,False,86,AM-203,materials/cfd/Images/CFD/AM-203/CFD-AM-203-086-N.jpg,BF-027,materials/cfd/Images/CFD/BF-027/CFD-BF-027-006-HO.jpg,m,1
2,1,36,study,1,female,Latino,male,Black,neutral,,,,,z,584,True,False,,1,,,,False,88,LF-232,materials/cfd/Images/CFD/LF-232/CFD-LF-232-199-N.jpg,BM-200,materials/cfd/Images/CFD/BM-200/CFD-BM-200-046-N.jpg,z,1
2,1,37,study,1,male,Asian,male,White,neutral,,,,,m,667,True,False,,1,,,,False,90,AM-218,materials/cfd/Images/CFD/AM-218/CFD-AM-218-085-N.jpg,WM-040,materials/cfd/Images/CFD/WM-040/CFD-WM-040-022-N.jpg,m,1
2,1,38,study,1,male,Latino,male,Black,happy,,,,,m,783,True,False,,1,,,,False,92,LM-252,materials/cfd/Images/CFD/LM-252/CFD-LM-252-076-N.jpg,BM-034,materials/cfd/Images/CFD/BM-034/CFD-BM-034-033-HO.jpg,m,1
2,1,39,study,1,male,White,female,White,angry,,,,,m,618,True,False,,1,,,,False,94,WM-202,materials/cfd/Images/CFD/WM-202/CFD-WM-202-107-N.jpg,WF-008,materials/cfd/Images/CFD/WF-008/CFD-WF-008-011-A.jpg,m,1
2,1,40,study,1,female,White,male,Black,happy,,,,,z,734,True,False,,1,,,,False,96,WF-013,materials/cfd/Images/CFD/WF-013/CFD-WF-013-003-N.jpg,BM-030,materials/cfd/Images/CFD/BM-030/CFD-BM-030-004-HO.jpg,z,1
2,1,41,study,1,male,Black,female,Black,angry,,,,,m,733,True,False,,1,,,,False,98,BM-214,materials/cfd/Images/CFD/BM-214/CFD-BM-214-075-N.jpg,BF-050,materials/cfd/Images/CFD/BF-050/CFD-BF-050-012-A.jpg,m,1
2,1,42,study,1,female,Latino,female,Black,happy,,,,,z,672,True,False,,1,,,,False,100,LF-217,materials/cfd/Images/CFD/LF-217/CFD-LF-217-082-N.jpg,BF-044,materials/cfd/Images/CFD/BF-044/CFD-BF-044-007-HO.jpg,z,1
2,1,43,study,1,female,Black,female,White,happy,,,,,z,582,True,False,,1,,,,False,102,BF-202,materials/cfd/Images/CFD/BF-202/CFD-BF-202-109-N.jpg,WF-031,materials/cfd/Images/CFD/WF-031/CFD-WF-031-005-HO.jpg,z,1
2,1,44,study,1,female,White,male,Black,happy,,,,,z,579,True,False,,1,,,,False,104,WF-005,materials/cfd/Images/CFD/WF-005/CFD-WF-005-010-N.jpg,BM-046,materials/cfd/Images/CFD/BM-046/CFD-BM-046-039-HO.jpg,z,1
2,1,45,study,1,male,White,male,Black,neutral,,,,,m,596,True,False,,1,,,,False,106,WM-212,materials/cfd/Images/CFD/WM-212/CFD-WM-212-097-N.jpg,BM-221,materials/cfd/Images/CFD/BM-221/CFD-BM-221-198-N.jpg,m,1
2,1,46,study,1,female,Black,male,Black,angry,,,,,z,567,True,False,,1,,,,False,108,BF-010,materials/cfd/Images/CFD/BF-010/CFD-BF-010-001-N.jpg,BM-038,materials/cfd/Images/CFD/BM-038/CFD-BM-038-038-A.jpg,z,1
2,1,47,study,1,female,Black,female,White,neutral,,,,,z,660,True,False,,1,,,,False,110,BF-238,materials/cfd/Images/CFD/BF-238/CFD-BF-238-190-N.jpg,WF-024,materials/cfd/Images/CFD/WF-024/CFD-WF-024-003-N.jpg,z,1
2,1,48,study,1,male,Latino,male,Black,angry,,,,,m,783,True,False,,1,,,,False,112,LM-238,materials/cfd/Images/CFD/LM-238/CFD-LM-238-129-N.jpg,BM-043,materials/cfd/Images/CFD/BM-043/CFD-BM-043-014-A.jpg,m,1
2,1,49,study,1,female,Black,male,White,happy,,,,,z,495,True,False,,1,,,,False,114,BF-015,materials/cfd/Images/CFD/BF-015/CFD-BF-015-004-N.jpg,WM-037,materials/cfd/Images/CFD/WM-037/CFD-WM-037-034-HO.jpg,z,1
2,1,50,study,1,female,White,female,Black,angry,,,,,z,613,True,False,,1,,,,False,116,WF-209,materials/cfd/Images/CFD/WF-209/CFD-WF-209-052-N.jpg,BF-008,materials/cfd/Images/CFD/BF-008/CFD-BF-008-012-A.jpg,z,1
2,1,51,study,1,female,White,male,White,happy,,,,,z,692,True,False,,1,,,,False,118,WF-232,materials/cfd/Images/CFD/WF-232/CFD-WF-232-161-N.jpg,WM-038,materials/cfd/Images/CFD/WM-038/CFD-WM-038-005-HO.jpg,z,1
2,1,52,study,1,male,White,female,White,angry,,,,,m,581,True,False,,1,,,,False,120,WM-022,materials/cfd/Images/CFD/WM-022/CFD-WM-022-001-N.jpg,WF-016,materials/cfd/Images/CFD/WF-016/CFD-WF-016-021-A.jpg,m,1
2,1,53,study,1,female,Latino,female,White,angry,,,,,z,675,True,False,,1,,,,False,122,LF-224,materials/cfd/Images/CFD/LF-224/CFD-LF-224-176-N.jpg,WF-037,materials/cfd/Images/CFD/WF-037/CFD-WF-037-016-A.jpg,z,1
2,1,54,study,1,female,Latino,female,Black,angry,,,,,z,667,True,False,,1,,,,False,124,LF-238,materials/cfd/Images/CFD/LF-238/CFD-LF-238-154-N.jpg,BF-002,materials/cfd/Images/CFD/BF-002/CFD-BF-002-018-A.jpg,z,1
2,1,55,study,1,male,White,male,Black,angry,,,,,m,540,True,False,,1,,,,False,126,WM-021,materials/cfd/Images/CFD/WM-021/CFD-WM-021-001-N.jpg,BM-040,materials/cfd/Images/CFD/BM-040/CFD-BM-040-013-A.jpg,m,1
2,1,56,study,1,male,Black,male,White,neutral,,,,,z,827,False,False,,1,,,,False,128,BM-253,materials/cfd/Images/CFD/BM-253/CFD-BM-253-004-N.jpg,WM-251,materials/cfd/Images/CFD/WM-251/CFD-WM-251-002-N.jpg,m,1
2,1,57,study,1,female,Black,female,Black,neutral,,,,,z,642,True,False,,1,,,,False,130,BF-210,materials/cfd/Images/CFD/BF-210/CFD-BF-210-130-N.jpg,BF-017,materials/cfd/Images/CFD/BF-017/CFD-BF-017-003-N.jpg,z,1
2,1,58,study,1,male,Latino,female,Black,neutral,,,,,m,566,True,False,,1,,,,False,132,LM-220,materials/cfd/Images/CFD/LM-220/CFD-LM-220-329-N.jpg,BF-004,materials/cfd/Images/CFD/BF-004/CFD-BF-004-014-N.jpg,m,1
2,1,59,study,1,male,Black,male,Black,happy,,,,,m,613,True,False,,1,,,,False,134,BM-022,materials/cfd/Images/CFD/BM-022/CFD-BM-022-022-N.jpg,BM-028,materials/cfd/Images/CFD/BM-028/CFD-BM-028-028-HO.jpg,m,1
2,1,60,study,1,male,White,female,Black,neutral,,,,,m,459,True,False,,1,,,,False,136,WM-034,materials/cfd/Images/CFD/WM-034/CFD-WM-034-030-N.jpg,BF-043,materials/cfd/Images/CFD/BF-043/CFD-BF-043-003-N.jpg,m,1
2,1,61,test,0,female,Black,,,,old,neutral,male,,z,1023,True,False,,1,,,,False,153,BF-215,materials/cfd/Images/CFD/BF-215/CFD-BF-215-177-N.jpg,,,z,1
2,1,62,test,0,male,Asian,,,,old,happy,male,,z,1278,True,False,,1,,,,False,155,AM-213,materials/cfd/Images/CFD/AM-213/CFD-AM-213-056-N.jpg,,,z,1
2,1,63,test,0,female,Black,,,,old,neutral,female,,m,891,False,False,,1,,,,False,157,BF-210,materials/cfd/Images/CFD/BF-210/CFD-BF-210-130-N.jpg,,,z,1
2,1,64,test,0,male,White,,,,old,neutral,male,,m,1110,False,False,,1,,,,False,159,WM-023,materials/cfd/Images/CFD/WM-023/CFD-WM-023-001-N.jpg,,,z,1
2,1,65,test,0,female,Asian,,,,new,,,,m,1125,True,False,,1,,,,False,161,AF-253,materials/cfd/Images/CFD/AF-253/CFD-AF-253-130-N.jpg,,,m,1
2,1,66,test,0,male,Latino,,,,new,,,,m,995,True,False,,1,,,,False,163,LM-234,materials/cfd/Images/CFD/LM-234/CFD-LM-234-176-N.jpg,,,m,1
2,1,67,test,0,female,Latino,,,,new,,,,z,706,False,False,,1,,,,False,165,LF-203,materials/cfd/Images/CFD/LF-203/CFD-LF-203-066-N.jpg,,,m,1
2,1,68,test,0,male,Asian,,,,new,,,,z,979,False,False,,1,,,,False,167,AM-233,materials/cfd/Images/CFD/AM-233/CFD-AM-233-236-N.jpg,,,m,1
2,1,69,test,0,female,Asian,,,,old,happy,female,,z,807,True,False,,1,,,,False,169,AF-236,materials/cfd/Images/CFD/AF-236/CFD-AF-236-145-N.jpg,,,z,1
2,1,70,test,0,male,Latino,,,,new,,,,z,1091,False,False,,1,,,,False,171,LM-253,materials/cfd/Images/CFD/LM-253/CFD-LM-253-075-N.jpg,,,m,1
2,1,71,test,0,female,Latino,,,,old,neutral,male,,z,899,True,False,,1,,,,False,173,LF-232,materials/cfd/Images/CFD/LF-232/CFD-LF-232-199-N.jpg,,,z,1
2,1,72,test,0,female,Asian,,,,new,,,,z,1057,False,False,,1,,,,False,175,AF-235,materials/cfd/Images/CFD/AF-235/CFD-AF-235-170-N.jpg,,,m,1
2,1,73,test,0,female,Asian,,,,new,,,,m,750,True,False,,1,,,,False,177,AF-244,materials/cfd/Images/CFD/AF-244/CFD-AF-244-168-N.jpg,,,m,1
2,1,74,test,0,female,White,,,,new,,,,m,902,True,False,,1,,,,False,179,WF-246,materials/cfd/Images/CFD/WF-246/CFD-WF-246-087-N.jpg,,,m,1
2,1,75,test,0,male,Black,,,,new,,,,m,1199,True,False,,1,,,,False,181,BM-226,materials/cfd/Images/CFD/BM-226/CFD-BM-226-276-N.jpg,,,m,1
2,1,76,test,0,female,Latino,,,,old,angry,male,,z,948,True,False,,1,,,,False,183,LF-221,materials/cfd/Images/CFD/LF-221/CFD-LF-221-002-N.jpg,,,z,1
2,1,77,test,0,female,Asian,,,,new,,,,m,1261,True,False,,1,,,,False,185,AF-205,materials/cfd/Images/CFD/AF-205/CFD-AF-205-155-N.jpg,,,m,1
2,1,78,test,0,male,White,,,,new,,,,m,1059,True,False,,1,,,,False,187,WM-221,materials/cfd/Images/CFD/WM-221/CFD-WM-221-091-N.jpg,,,m,1
2,1,79,test,0,male,Asian,,,,old,happy,female,,z,1149,True,False,,1,,,,False,189,AM-203,materials/cfd/Images/CFD/AM-203/CFD-AM-203-086-N.jpg,,,z,1
2,1,80,test,0,female,Latino,,,,old,angry,male,,z,999,True,False,,1,,,,False,191,LF-248,materials/cfd/Images/CFD/LF-248/CFD-LF-248-160-N.jpg,,,z,1
2,1,81,test,0,female,Asian,,,,old,angry,male,,m,978,False,False,,1,,,,False,193,AF-223,materials/cfd/Images/CFD/AF-223/CFD-AF-223-183-N.jpg,,,z,1
2,1,82,test,0,female,Black,,,,new,,,,m,965,True,False,,1,,,,False,195,BF-011,materials/cfd/Images/CFD/BF-011/CFD-BF-011-002-N.jpg,,,m,1
2,1,83,test,0,male,Latino,,,,new,,,,m,1045,True,False,,1,,,,False,197,LM-251,materials/cfd/Images/CFD/LM-251/CFD-LM-251-073-N.jpg,,,m,1
2,1,84,test,0,male,Asian,,,,new,,,,m,921,True,False,,1,,,,False,199,AM-231,materials/cfd/Images/CFD/AM-231/CFD-AM-231-136-N.jpg,,,m,1
2,1,85,test,0,male,Black,,,,new,,,,m,1153,True,False,,1,,,,False,201,BM-207,materials/cfd/Images/CFD/BM-207/CFD-BM-207-024-N.jpg,,,m,1
2,1,86,test,0,female,Black,,,,old,neutral,female,,z,731,True,False,,1,,,,False,203,BF-238,materials/cfd/Images/CFD/BF-238/CFD-BF-238-190-N.jpg,,,z,1
2,1,87,test,0,female,Latino,,,,old,angry,female,,m,879,False,False,,1,,,,False,205,LF-238,materials/cfd/Images/CFD/LF-238/CFD-LF-238-154-N.jpg,,,z,1
2,1,88,test,0,female,White,,,,new,,,,m,877,True,False,,1,,,,False,207,WF-012,materials/cfd/Images/CFD/WF-012/CFD-WF-012-002-N.jpg,,,m,1
2,1,89,test,0,male,Asian,,,,old,happy,male,,z,798,True,False,,1,,,,False,209,AM-216,materials/cfd/Images/CFD/AM-216/CFD-AM-216-114-N.jpg,,,z,1
2,1,90,test,0,male,Asian,,,,old,angry,male,,z,870,True,False,,1,,,,False,211,AM-221,materials/cfd/Images/CFD/AM-221/CFD-AM-221-184-N.jpg,,,z,1
2,1,91,test,0,male,White,,,,new,,,,m,855,True,False,,1,,,,False,213,WM-017,materials/cfd/Images/CFD/WM-017/CFD-WM-017-002-N.jpg,,,m,1
2,1,92,test,0,female,Asian,,,,new,,,,m,758,True,False,,1,,,,False,215,AF-206,materials/cfd/Images/CFD/AF-206/CFD-AF-206-079-N.jpg,,,m,1
2,1,93,test,0,male,Latino,,,,new,,,,z,1000,False,False,,1,,,,False,217,LM-225,materials/cfd/Images/CFD/LM-225/CFD-LM-225-130-N.jpg,,,m,1
2,1,94,test,0,female,White,,,,new,,,,m,785,True,False,,1,,,,False,219,WF-010,materials/cfd/Images/CFD/WF-010/CFD-WF-010-004-N.jpg,,,m,1
2,1,95,test,0,female,White,,,,old,angry,female,,z,1048,True,False,,1,,,,False,221,WF-209,materials/cfd/Images/CFD/WF-209/CFD-WF-209-052-N.jpg,,,z,1
2,1,96,test,0,male,Asian,,,,new,,,,m,1287,True,False,,1,,,,False,223,AM-211,materials/cfd/Images/CFD/AM-211/CFD-AM-211-052-N.jpg,,,m,1
2,1,97,test,0,female,Latino,,,,new,,,,z,949,False,False,,1,,,,False,225,LF-214,materials/cfd/Images/CFD/LF-214/CFD-LF-214-090-N.jpg,,,m,1
2,1,98,test,0,male,White,,,,old,angry,female,,z,725,True,False,,1,,,,False,227,WM-022,materials/cfd/Images/CFD/WM-022/CFD-WM-022-001-N.jpg,,,z,1
2,1,99,test,0,male,Black,,,,new,,,,m,1217,True,False,,1,,,,False,229,BM-219,materials/cfd/Images/CFD/BM-219/CFD-BM-219-141-N.jpg,,,m,1
2,1,100,test,0,male,Asian,,,,new,,,,m,1106,True,False,,1,,,,False,231,AM-246,materials/cfd/Images/CFD/AM-246/CFD-AM-246-184-N.jpg,,,m,1
2,1,101,test,1,male,White,,,,old,angry,female,,z,1050,True,False,,1,,,,False,234,WM-035,materials/cfd/Images/CFD/WM-035/CFD-WM-035-032-N.jpg,,,z,1
2,1,102,test,1,male,Black,,,,old,angry,male,,m,843,False,False,,1,,,,False,236,BM-202,materials/cfd/Images/CFD/BM-202/CFD-BM-202-063-N.jpg,,,z,1
2,1,103,test,1,female,Black,,,,old,happy,female,,z,1023,True,False,,1,,,,False,238,BF-224,materials/cfd/Images/CFD/BF-224/CFD-BF-224-002-N.jpg,,,z,1
2,1,104,test,1,male,White,,,,old,angry,male,,z,792,True,False,,1,,,,False,240,WM-021,materials/cfd/Images/CFD/WM-021/CFD-WM-021-001-N.jpg,,,z,1
2,1,105,test,1,female,Asian,,,,new,,,,z,1190,False,False,,1,,,,False,242,AF-215,materials/cfd/Images/CFD/AF-215/CFD-AF-215-70-N.jpg,,,m,1
2,1,106,test,1,male,Asian,,,,old,neutral,male,,m,985,False,False,,1,,,,False,244,AM-218,materials/cfd/Images/CFD/AM-218/CFD-AM-218-085-N.jpg,,,z,1
2,1,107,test,1,male,Asian,,,,new,,,,m,1092,True,False,,1,,,,False,246,AM-236,materials/cfd/Images/CFD/AM-236/CFD-AM-236-090-N.jpg,,,m,1
2,1,108,test,1,female,Black,,,,new,,,,m,844,True,False,,1,,,,False,248,BF-216,materials/cfd/Images/CFD/BF-216/CFD-BF-216-132-N.jpg,,,m,1
2,1,109,test,1,male,White,,,,old,happy,female,,z,1112,True,False,,1,,,,False,250,WM-029,materials/cfd/Images/CFD/WM-029/CFD-WM-029-023-N.jpg,,,z,1
2,1,110,test,1,male,Black,,,,old,neutral,female,,z,944,True,False,,1,,,,False,252,BM-210,materials/cfd/Images/CFD/BM-210/CFD-BM-210-148-N.jpg,,,z,1
2,1,111,test,1,female,White,,,,new,,,,z,948,False,False,,1,,,,False,254,WF-002,materials/cfd/Images/CFD/WF-002/CFD-WF-002-004-N.jpg,,,m,1
2,1,112,test,1,female,Black,,,,new,,,,m,830,True,False,,1,,,,False,256,BF-007,materials/cfd/Images/CFD/BF-007/CFD-BF-007-001-N.jpg,,,m,1
2,1,113,test,1,female,Black,,,,old,happy,female,,z,1149,True,False,,1,,,,False,258,BF-202,materials/cfd/Images/CFD/BF-202/CFD-BF-202-109-N.jpg,,,z,1
2,1,114,test,1,male,Black,,,,old,angry,male,,z,778,True,False,,1,,,,False,260,BM-213,materials/cfd/Images/CFD/BM-213/CFD-BM-213-134-N.jpg,,,z,1
2,1,115,test,1,male,Asian,,,,new,,,,m,981,True,False,,1,,,,False,262,AM-239,materials/cfd/Images/CFD/AM-239/CFD-AM-239-147-N.jpg,,,m,1
2,1,116,test,1,male,White,,,,old,happy,female,,m,939,False,False,,1,,,,False,264,WM-004,materials/cfd/Images/CFD/WM-004/CFD-WM-004-010-N.jpg,,,z,1
2,1,117,test,1,female,Black,,,,new,,,,z,1234,False,False,,1,,,,False,266,BF-249,materials/cfd/Images/CFD/BF-249/CFD-BF-249-091-N.jpg,,,m,1
2,1,118,test,1,male,White,,,,new,,,,m,1116,True,False,,1,,,,False,268,WM-028,materials/cfd/Images/CFD/WM-028/CFD-WM-028-003-N.jpg,,,m,1
2,1,119,test,1,male,Black,,,,new,,,,m,948,True,False,,1,,,,False,270,BM-016,materials/cfd/Images/CFD/BM-016/CFD-BM-016-036-N.jpg,,,m,1
2,1,120,test,1,male,Black,,,,old,angry,female,,z,1154,True,False,,1,,,,False,272,BM-002,materials/cfd/Images/CFD/BM-002/CFD-BM-002-013-N.jpg,,,z,1
2,1,121,test,1,male,Black,,,,new,,,,z,981,False,False,,1,,,,False,274,BM-003,materials/cfd/Images/CFD/BM-003/CFD-BM-003-003-N.jpg,,,m,1
2,1,122,test,1,male,White,,,,new,,,,m,791,True,False,,1,,,,False,276,WM-002,materials/cfd/Images/CFD/WM-002/CFD-WM-002-009-N.jpg,,,m,1
2,1,123,test,1,male,Latino,,,,old,neutral,female,,m,1119,False,False,,1,,,,False,278,LM-220,materials/cfd/Images/CFD/LM-220/CFD-LM-220-329-N.jpg,,,z,1
2,1,124,test,1,female,Asian,,,,new,,,,m,862,True,False,,1,,,,False,280,AF-219,materials/cfd/Images/CFD/AF-219/CFD-AF-219-106-N.jpg,,,m,1
2,1,125,test,1,female,White,,,,new,,,,z,921,False,False,,1,,,,False,282,WF-025,materials/cfd/Images/CFD/WF-025/CFD-WF-025-019-N.jpg,,,m,1
2,1,126,test,1,female,Black,,,,new,,,,z,954,False,False,,1,,,,False,284,BF-045,materials/cfd/Images/CFD/BF-045/CFD-BF-045-003-N.jpg,,,m,1
2,1,127,test,1,female,White,,,,old,happy,male,,z,1021,True,False,,1,,,,False,286,WF-232,materials/cfd/Images/CFD/WF-232/CFD-WF-232-161-N.jpg,,,z,1
2,1,128,test,1,female,Asian,,,,new,,,,m,747,True,False,,1,,,,False,288,AF-221,materials/cfd/Images/CFD/AF-221/CFD-AF-221-147-N.jpg,,,m,1
2,1,129,test,1,male,Latino,,,,new,,,,m,806,True,False,,1,,,,False,290,LM-206,materials/cfd/Images/CFD/LM-206/CFD-LM-206-204-N.jpg,,,m,1
2,1,130,test,1,female,White,,,,old,angry,male,,m,1043,False,False,,1,,,,False,292,WF-249,materials/cfd/Images/CFD/WF-249/CFD-WF-249-126-N.jpg,,,z,1
2,1,131,test,1,female,Asian,,,,old,neutral,male,,z,1301,True,False,,1,,,,False,294,AF-237,materials/cfd/Images/CFD/AF-237/CFD-AF-237-223-N.jpg,,,z,1
2,1,132,test,1,male,White,,,,old,neutral,female,,z,1277,True,False,,1,,,,False,296,WM-031,materials/cfd/Images/CFD/WM-031/CFD-WM-031-003-N.jpg,,,z,1
2,1,133,test,1,female,White,,,,new,,,,m,862,True,False,,1,,,,False,298,WF-235,materials/cfd/Images/CFD/WF-235/CFD-WF-235-121-N.jpg,,,m,1
2,1,134,test,1,male,Black,,,,new,,,,z,1040,False,False,,1,,,,False,300,BM-241,materials/cfd/Images/CFD/BM-241/CFD-BM-241-235-N.jpg,,,m,1
2,1,135,test,1,male,Latino,,,,new,,,,z,927,False,False,,1,,,,False,302,LM-212,materials/cfd/Images/CFD/LM-212/CFD-LM-212-143-N.jpg,,,m,1
2,1,136,test,1,male,Latino,,,,old,angry,male,,z,847,True,False,,1,,,,False,304,LM-238,materials/cfd/Images/CFD/LM-238/CFD-LM-238-129-N.jpg,,,z,1
2,1,137,test,1,female,Asian,,,,old,neutral,female,,m,718,False,False,,1,,,,False,306,AF-216,materials/cfd/Images/CFD/AF-216/CFD-AF-216-106-N.jpg,,,z,1
2,1,138,test,1,female,White,,,,old,neutral,female,,z,774,True,False,,1,,,,False,308,WF-218,materials/cfd/Images/CFD/WF-218/CFD-WF-218-087-N.jpg,,,z,1
2,1,139,test,1,female,Asian,,,,new,,,,m,1224,True,False,,1,,,,False,310,AF-203,materials/cfd/Images/CFD/AF-203/CFD-AF-203-077-N.jpg,,,m,1
2,1,140,test,1,male,Latino,,,,old,happy,male,,z,951,True,False,,1,,,,False,312,LM-252,materials/cfd/Images/CFD/LM-252/CFD-LM-252-076-N.jpg,,,z,1
2,1,141,test,2,female,Black,,,,new,,,,z,1063,False,False,,1,,,,False,315,BF-030,materials/cfd/Images/CFD/BF-030/CFD-BF-030-002-N.jpg,,,m,1
2,1,142,test,2,male,Black,,,,new,,,,z,809,False,False,,1,,,,False,317,BM-246,materials/cfd/Images/CFD/BM-246/CFD-BM-246-192-N.jpg,,,m,1
2,1,143,test,2,female,Asian,,,,new,,,,m,969,True,False,,1,,,,False,319,AF-239,materials/cfd/Images/CFD/AF-239/CFD-AF-239-171-N.jpg,,,m,1
2,1,144,test,2,female,Asian,,,,old,neutral,male,,m,955,False,False,,1,,,,False,321,AF-220,materials/cfd/Images/CFD/AF-220/CFD-AF-220-107-N.jpg,,,z,1
2,1,145,test,2,male,White,,,,new,,,,m,807,True,False,,1,,,,False,323,WM-032,materials/cfd/Images/CFD/WM-032/CFD-WM-032-001-N.jpg,,,m,1
2,1,146,test,2,male,Black,,,,old,happy,male,,z,767,True,False,,1,,,,False,325,BM-022,materials/cfd/Images/CFD/BM-022/CFD-BM-022-022-N.jpg,,,z,1
2,1,147,test,2,female,Black,,,,new,,,,z,848,False,False,,1,,,,False,327,BF-205,materials/cfd/Images/CFD/BF-205/CFD-BF-205-141-N.jpg,,,m,1
2,1,148,test,2,female,White,,,,old,happy,male,,m,952,False,False,,1,,,,False,329,WF-005,materials/cfd/Images/CFD/WF-005/CFD-WF-005-010-N.jpg,,,z,1
2,1,149,test,2,male,White,,,,old,neutral,female,,z,1254,True,False,,1,,,,False,331,WM-003,materials/cfd/Images/CFD/WM-003/CFD-WM-003-002-N.jpg,,,z,1
2,1,150,test,2,male,White,,,,old,neutral,male,,m,879,False,False,,1,,,,False,333,WM-212,materials/cfd/Images/CFD/WM-212/CFD-WM-212-097-N.jpg,,,z,1
2,1,151,test,2,male,White,,,,new,,,,m,671,True,False,,1,,,,False,335,WM-203,materials/cfd/Images/CFD/WM-203/CFD-WM-203-023-N.jpg,,,m,1
2,1,152,test,2,male,Latino,,,,old,happy,male,,m,968,False,False,,1,,,,False,337,LM-248,materials/cfd/Images/CFD/LM-248/CFD-LM-248-089-N.jpg,,,z,1
2,1,153,test,2,female,Asian,,,,old,happy,female,,z,910,True,False,,1,,,,False,339,AF-224,materials/cfd/Images/CFD/AF-224/CFD-AF-224-026-N.jpg,,,z,1
2,1,154,test,2,female,Black,,,,new,,,,m,1000,True,False,,1,,,,False,341,BF-222,materials/cfd/Images/CFD/BF-222/CFD-BF-222-240-N.jpg,,,m,1
2,1,155,test,2,female,Black,,,,new,,,,z,958,False,False,,1,,,,False,343,BF-024,materials/cfd/Images/CFD/BF-024/CFD-BF-024-002-N.jpg,,,m,1
2,1,156,test,2,male,White,,,,old,happy,female,,m,1000,False,False,,1,,,,False,345,WM-244,materials/cfd/Images/CFD/WM-244/CFD-WM-244-003-N.jpg,,,z,1
2,1,157,test,2,female,White,,,,new,,,,m,893,True,False,,1,,,,False,347,WF-234,materials/cfd/Images/CFD/WF-234/CFD-WF-234-086-N.jpg,,,m,1
2,1,158,test,2,male,White,,,,old,angry,female,,z,930,True,False,,1,,,,False,349,WM-202,materials/cfd/Images/CFD/WM-202/CFD-WM-202-107-N.jpg,,,z,1
2,1,159,test,2,female,Asian,,,,old,angry,female,,z,1199,True,False,,1,,,,False,351,AF-209,materials/cfd/Images/CFD/AF-209/CFD-AF-209-006-N.jpg,,,z,1
2,1,160,test,2,male,Latino,,,,new,,,,m,830,True,False,,1,,,,False,353,LM-249,materials/cfd/Images/CFD/LM-249/CFD-LM-249-001-N.jpg,,,m,1
2,1,161,test,2,male,Black,,,,new,,,,m,956,True,False,,1,,,,False,355,BM-203,materials/cfd/Images/CFD/BM-203/CFD-BM-203-001-N.jpg,,,m,1
2,1,162,test,2,female,White,,,,old,neutral,female,,m,899,False,False,,1,,,,False,357,WF-034,materials/cfd/Images/CFD/WF-034/CFD-WF-034-006-N.jpg,,,z,1
2,1,163,test,2,male,Black,,,,new,,,,m,922,True,False,,1,,,,False,359,BM-218,materials/cfd/Images/CFD/BM-218/CFD-BM-218-132-N.jpg,,,m,1
2,1,164,test,2,male,White,,,,old,neutral,female,,m,919,False,False,,1,,,,False,361,WM-034,materials/cfd/Images/CFD/WM-034/CFD-WM-034-030-N.jpg,,,z,1
2,1,165,test,2,male,White,,,,new,,,,m,1098,True,False,,1,,,,False,363,WM-247,materials/cfd/Images/CFD/WM-247/CFD-WM-247-084-N.jpg,,,m,1
2,1,166,test,2,female,White,,,,old,angry,female,,z,926,True,False,,1,,,,False,365,WF-219,materials/cfd/Images/CFD/WF-219/CFD-WF-219-038-N.jpg,,,z,1
2,1,167,test,2,female,Latino,,,,old,happy,male,,m,992,False,False,,1,,,,False,367,LF-254,materials/cfd/Images/CFD/LF-254/CFD-LF-254-125-N.jpg,,,z,1
2,1,168,test,2,male,Latino,,,,old,happy,female,,m,829,False,False,,1,,,,False,369,LM-203,materials/cfd/Images/CFD/LM-203/CFD-LM-203-026-N.jpg,,,z,1
2,1,169,test,2,female,Black,,,,new,,,,m,773,True,False,,1,,,,False,371,BF-003,materials/cfd/Images/CFD/BF-003/CFD-BF-003-003-N.jpg,,,m,1
2,1,170,test,2,female,Black,,,,old,angry,male,,z,863,True,False,,1,,,,False,373,BF-010,materials/cfd/Images/CFD/BF-010/CFD-BF-010-001-N.jpg,,,z,1
2,1,171,test,2,male,Black,,,,old,neutral,male,,z,867,True,False,,1,,,,False,375,BM-236,materials/cfd/Images/CFD/BM-236/CFD-BM-236-248-N.jpg,,,z,1
2,1,172,test,2,female,Black,,,,new,,,,z,822,False,False,,1,,,,False,377,BF-252,materials/cfd/Images/CFD/BF-252/CFD-BF-252-191-N.jpg,,,m,1
2,1,173,test,2,male,Latino,,,,new,,,,m,761,True,False,,1,,,,False,379,LM-204,materials/cfd/Images/CFD/LM-204/CFD-LM-204-001-N.jpg,,,m,1
2,1,174,test,2,female,Latino,,,,old,angry,female,,m,703,False,False,,1,,,,False,381,LF-224,materials/cfd/Images/CFD/LF-224/CFD-LF-224-176-N.jpg,,,z,1
2,1,175,test,2,male,Black,,,,old,angry,female,,z,870,True,False,,1,,,,False,383,BM-214,materials/cfd/Images/CFD/BM-214/CFD-BM-214-075-N.jpg,,,z,1
2,1,176,test,2,female,White,,,,old,happy,male,,m,650,False,False,,1,,,,False,385,WF-013,materials/cfd/Images/CFD/WF-013/CFD-WF-013-003-N.jpg,,,z,1
2,1,177,test,2,female,Black,,,,old,neutral,male,,z,845,True,False,,1,,,,False,387,BF-037,materials/cfd/Images/CFD/BF-037/CFD-BF-037-022-N.jpg,,,z,1
2,1,178,test,2,male,Black,,,,old,neutral,male,,z,811,True,False,,1,,,,False,389,BM-253,materials/cfd/Images/CFD/BM-253/CFD-BM-253-004-N.jpg,,,z,1
2,1,179,test,2,female,Black,,,,old,happy,male,,z,948,True,False,,1,,,,False,391,BF-015,materials/cfd/Images/CFD/BF-015/CFD-BF-015-004-N.jpg,,,z,1
2,1,180,test,2,female,Latino,,,,old,happy,female,,m,732,False,False,,1,,,,False,393,LF-217,materials/cfd/Images/CFD/LF-217/CFD-LF-217-082-N.jpg,,,z,1
3,1,1,study,0,female,White,female,White,neutral,,,,,m,614,False,False,,2,,,,False,19,WF-239,materials/cfd/Images/CFD/WF-239/CFD-WF-239-155-N.jpg,WF-038,materials/cfd/Images/CFD/WF-038/CFD-WF-038-021-N.jpg,z,1
3,1,2,study,0,male,White,male,Black,neutral,,,,,z,625,False,False,,2,,,,False,21,WM-243,materials/cfd/Images/CFD/WM-243/CFD-WM-243-107-N.jpg,BM-021,materials/cfd/Images/CFD/BM-021/CFD-BM-021-021-N.jpg,m,1
3,1,3,study,0,female,Asian,male,Black,neutral,,,,,m,647,False,False,,2,,,,False,23,AF-231,materials/cfd/Images/CFD/AF-231/CFD-AF-231-357-N.jpg,BM-002,materials/cfd/Images/CFD/BM-002/CFD-BM-002-013-N.jpg,z,1
3,1,4,study,0,female,Latino,male,White,angry,,,,,m,2336,False,False,,2,,,,False,25,LF-206,materials/cfd/Images/CFD/LF-206/CFD-LF-206-078-N.jpg,WM-036,materials/cfd/Images/CFD/WM-036/CFD-WM-036-018-A.jpg,z,1
3,1,5,study,0,male,Black,female,White,angry,,,,,m,1545,True,False,,2,,,,False,27,BM-250,materials/cfd/Images/CFD/BM-250/CFD-BM-250-170-N.jpg,WF-019,materials/cfd/Images/CFD/WF-019/CFD-WF-019-015-A.jpg,m,1
3,1,6,study,0,female,Asian,female,Black,angry,,,,,m,1150,False,False,,2,,,,False,29,AF-250,materials/cfd/Images/CFD/AF-250/CFD-AF-250-200-N.jpg,BF-037,materials/cfd/Images/CFD/BF-037/CFD-BF-037-013-A.jpg,z,1
3,1,7,study,0,male,Asian,male,White,angry,,,,,z,661,False,False,,2,,,,False,31,AM-211,materials/cfd/Images/CFD/AM-211/CFD-AM-211-052-N.jpg,WM-003,materials/cfd/Images/CFD/WM-003/CFD-WM-003-008-A.jpg,m,1
3,1,8,study,0,male,Black,female,Black,neutral,,,,,z,1704,False,False,,2,,,,False,33,BM-031,materials/cfd/Images/CFD/BM-031/CFD-BM-031-003-N.jpg,BF-237,materials/cfd/Images/CFD/BF-237/CFD-BF-237-172-N.jpg,m,1
3,1,9,study,0,female,Black,female,Black,happy,,,,,m,942,False,False,,2,,,,False,35,BF-244,materials/cfd/Images/CFD/BF-244/CFD-BF-244-231-N.jpg,BF-008,materials/cfd/Images/CFD/BF-008/CFD-BF-008-003-HO.jpg,z,1
3,1,10,study,0,male,Asian,female,Black,neutral,,,,,z,1518,False,False,,2,,,,False,37,AM-214,materials/cfd/Images/CFD/AM-214/CFD-AM-214-168-N.jpg,BF-239,materials/cfd/Images/CFD/BF-239/CFD-BF-239-180-N.jpg,m,1
3,1,11,study,0,male,Black,female,Black,angry,,,,,m,2188,True,False,,2,,,,False,39,BM-249,materials/cfd/Images/CFD/BM-249/CFD-BM-249-235-N.jpg,BF-034,materials/cfd/Images/CFD/BF-034/CFD-BF-034-035-A.jpg,m,1
3,1,12,study,0,female,Asian,female,Black,neutral,,,,,m,773,False,False,,2,,,,False,41,AF-247,materials/cfd/Images/CFD/AF-247/CFD-AF-247-278-N.jpg,BF-001,materials/cfd/Images/CFD/BF-001/CFD-BF-001-025-N.jpg,z,1
3,1,13,study,0,male,White,male,White,neutral,,,,,z,1410,False,False,,2,,,,False,43,WM-224,materials/cfd/Images/CFD/WM-224/CFD-WM-224-197-N.jpg,WM-032,materials/cfd/Images/CFD/WM-032/CFD-WM-032-001-N.jpg,m,1
3,1,14,study,0,male,Latino,female,Black,angry,,,,,m,1821,True,False,,2,,,,False,45,LM-249,materials/cfd/Images/CFD/LM-249/CFD-LM-249-001-N.jpg,BF-006,materials/cfd/Images/CFD/BF-006/CFD-BF-006-012-A.jpg,m,1
3,1,15,study,0,female,White,male,Black,neutral,,,,,z,1348,True,False,,2,,,,False,47,WF-208,materials/cfd/Images/CFD/WF-208/CFD-WF-208-068-N.jpg,BM-210,materials/cfd/Images/CFD/BM-210/CFD-BM-210-148-N.jpg,z,1
3,1,16,study,0,male,White,male,White,angry,,,,,z,820,False,False,,2,,,,False,49,WM-210,materials/cfd/Images/CFD/WM-210/CFD-WM-210-057-N.jpg,WM-010,materials/cfd/Images/CFD/WM-010/CFD-WM-010-016-A.jpg,m,1
3,1,17,study,0,female,Asian,male,White,happy,,,,,z,1507,True,False,,2,,,,False,51,AF-244,materials/cfd/Images/CFD/AF-244/CFD-AF-244-168-N.jpg,WM-026,materials/cfd/Images/CFD/WM-026/CFD-WM-026-006-HO.jpg,z,1
3,1,18,study,0,male,Black,male,Black,angry,,,,,z,805,False,False,,2,,,,False,53,BM-023,materials/cfd/Images/CFD/BM-023/CFD-BM-023-029-N.jpg,BM-013,materials/cfd/Images/CFD/BM-013/CFD-BM-013-016-A.jpg,m,1
3,1,19,study,0,female,Latino,female,White,angry,,,,,m,809,False,False,,2,,,,False,55,LF-242,materials/cfd/Images/CFD/LF-242/CFD-LF-242-121-N.jpg,WF-005,materials/cfd/Images/CFD/WF-005/CFD-WF-005-022-A.jpg,z,1
3,1,20,study,0,male,White,male,Black,happy,,,,,z,1298,False,False,,2,,,,False,57,WM-014,materials/cfd/Images/CFD/WM-014/CFD-WM-014-002-N.jpg,BM-043,materials/cfd/Images/CFD/BM-043/CFD-BM-043-076-HO.jpg,m,1
3,1,21,study,0,male,Asian,female,White,happy,,,,,m,1335,True,False,,2,,,,False,59,AM-213,materials/cfd/Images/CFD/AM-213/CFD-AM-213-056-N.jpg,WF-009,materials/cfd/Images/CFD/WF-009/CFD-WF-009-004-HO.jpg,m,1
3,1,22,study,0,female,Latino,male,Black,angry,,,,,z,1725,True,False,,2,,,,False,61,LF-221,materials/cfd/Images/CFD/LF-221/CFD-LF-221-002-N.jpg,BM-017,materials/cfd/Images/CFD/BM-017/CFD-BM-017-035-A.jpg,z,1
3,1,23,study,0,female,Black,male,Black,happy,,,,,z,779,True,False,,2,,,,False,63,BF-020,materials/cfd/Images/CFD/BF-020/CFD-BF-020-002-N.jpg,BM-025,materials/cfd/Images/CFD/BM-025/CFD-BM-025-040-HO.jpg,z,1
3,1,24,study,0,female,Latino,female,White,neutral,,,,,m,895,False,False,,2,,,,False,65,LF-217,materials/cfd/Images/CFD/LF-217/CFD-LF-217-082-N.jpg,WF-024,materials/cfd/Images/CFD/WF-024/CFD-WF-024-003-N.jpg,z,1
3,1,25,study,0,male,Latino,male,Black,happy,,,,,z,569,False,False,,2,,,,False,67,LM-241,materials/cfd/Images/CFD/LM-241/CFD-LM-241-125-N.jpg,BM-028,materials/cfd/Images/CFD/BM-028/CFD-BM-028-028-HO.jpg,m,1
3,1,26,study,0,male,White,male,White,happy,,,,,z,732,False,False,,2,,,,False,69,WM-023,materials/cfd/Images/CFD/WM-023/CFD-WM-023-001-N.jpg,WM-019,materials/cfd/Images/CFD/WM-019/CFD-WM-019-009-HO.jpg,m,1
3,1,27,study,0,female,Latino,female,White,happy,,,,,m,555,False,False,,2,,,,False,71,LF-232,materials/cfd/Images/CFD/LF-232/CFD-LF-232-199-N.jpg,WF-018,materials/cfd/Images/CFD/WF-018/CFD-WF-018-018-HO.jpg,z,1
3,1,28,study,0,female,White,female,Black,angry,,,,,m,760,False,False,,2,,,,False,73,WF-213,materials/cfd/Images/CFD/WF-213/CFD-WF-213-031-N.jpg,BF-019,materials/cfd/Images/CFD/BF-019/CFD-BF-019-023-A.jpg,z,1
3,1,29,study,0,female,Latino,female,White,happy,,,,,m,607,False,False,,2,,,,False,75,LF-219,materials/cfd/Images/CFD/LF-219/CFD-LF-219-223-N.jpg,WF-025,materials/cfd/Images/CFD/WF-025/CFD-WF-025-006-HO.jpg,z,1
3,1,30,study,0,male,Black,female,Black,neutral,,,,,z,527,False,False,,2,,,,False,77,BM-024,materials/cfd/Images/CFD/BM-024/CFD-BM-024-001-N.jpg,BF-033,materials/cfd/Images/CFD/BF-033/CFD-BF-033-028-N.jpg,m,1
3,1,31,study,1,female,White,female,Black,happy,,,,,m,727,False,False,,2,,,,False,80,WF-224,materials/cfd/Images/CFD/WF-224/CFD-WF-224-099-N.jpg,BF-021,materials/cfd/Images/CFD/BF-021/CFD-BF-021-014-HO.jpg,z,1
3,1,32,study,1,female,White,male,White,angry,,,,,z,1066,True,False,,2,,,,False,82,WF-226,materials/cfd/Images/CFD/WF-226/CFD-WF-226-095-N.jpg,WM-002,materials/cfd/Images/CFD/WM-002/CFD-WM-002-017-A.jpg,z,1
3,1,33,study,1,male,Black,male,White,angry,,,,,z,564,False,False,,2,,,,False,84,BM-233,materials/cfd/Images/CFD/BM-233/CFD-BM-233-285-N.jpg,WM-015,materials/cfd/Images/CFD/WM-015/CFD-WM-015-017-A.jpg,m,1
3,1,34,study,1,male,Latino,female,Black,happy,,,,,m,1081,True,False,,2,,,,False,86,LM-214,materials/cfd/Images/CFD/LM-214/CFD-LM-214-165-N.jpg,BF-028,materials/cfd/Images/CFD/BF-028/CFD-BF-028-006-HO.jpg,m,1
3,1,35,study,1,female,Black,male,Black,angry,,,,,z,885,True,False,,2,,,,False,88,BF-049,materials/cfd/Images/CFD/BF-049/CFD-BF-049-032-N.jpg,BM-026,materials/cfd/Images/CFD/BM-026/CFD-BM-026-017-A.jpg,z,1
3,1,36,study,1,male,White,male,White,neutral,,,,,z,1050,False,False,,2,,,,False,90,WM-001,materials/cfd/Images/CFD/WM-001/CFD-WM-001-014-N.jpg,WM-258,materials/cfd/Images/CFD/WM-258/CFD-WM-258-125-N.jpg,m,1
3,1,37,study,1,male,White,female,Black,happy,,,,,m,1523,True,False,,2,,,,False,92,WM-239,materials/cfd/Images/CFD/WM-239/CFD-WM-239-128-N.jpg,BF-030,materials/cfd/Images/CFD/BF-030/CFD-BF-030-007-HO.jpg,m,1
3,1,38,study,1,female,White,male,Black,happy,,,,,z,592,True,False,,2,,,,False,94,WF-021,materials/cfd/Images/CFD/WF-021/CFD-WF-021-002-N.jpg,BM-018,materials/cfd/Images/CFD/BM-018/CFD-BM-018-007-HO.jpg,z,1
3,1,39,study,1,male,White,female,White,angry,,,,,m,909,True,False,,2,,,,False,96,WM-218,materials/cfd/Images/CFD/WM-218/CFD-WM-218-074-N.jpg,WF-031,materials/cfd/Images/CFD/WF-031/CFD-WF-031-015-A.jpg,m,1
3,1,40,study,1,female,White,female,White,neutral,,,,,m,915,False,False,,2,,,,False,98,WF-033,materials/cfd/Images/CFD/WF-033/CFD-WF-033-002-N.jpg,WF-221,materials/cfd/Images/CFD/WF-221/CFD-WF-221-005-N.jpg,z,1
3,1,41,study,1,male,Black,female,White,happy,,,,,z,513,False,False,,2,,,,False,100,BM-222,materials/cfd/Images/CFD/BM-222/CFD-BM-222-173-N.jpg,WF-007,materials/cfd/Images/CFD/WF-007/CFD-WF-007-003-HO.jpg,m,1
3,1,42,study,1,male,White,female,Black,neutral,,,,,m,953,True,False,,2,,,,False,102,WM-255,materials/cfd/Images/CFD/WM-255/CFD-WM-255-219-N.jpg,BF-211,materials/cfd/Images/CFD/BF-211/CFD-BF-211-168-N.jpg,m,1
3,1,43,study,1,male,Asian,male,Black,happy,,,,,z,771,False,False,,2,,,,False,104,AM-235,materials/cfd/Images/CFD/AM-235/CFD-AM-235-241-N.jpg,BM-019,materials/cfd/Images/CFD/BM-019/CFD-BM-019-004-HO.jpg,m,1
3,1,44,study,1,male,White,male,White,angry,,,,,z,645,False,False,,2,,,,False,106,WM-025,materials/cfd/Images/CFD/WM-025/CFD-WM-025-002-N.jpg,WM-034,materials/cfd/Images/CFD/WM-034/CFD-WM-034-040-A.jpg,m,1
3,1,45,study,1,female,Black,female,Black,happy,,,,,m,1555,False,False,,2,,,,False,108,BF-204,materials/cfd/Images/CFD/BF-204/CFD-BF-204-189-N.jpg,BF-011,materials/cfd/Images/CFD/BF-011/CFD-BF-011-004-HO.jpg,z,1
3,1,46,study,1,female,Latino,male,White,happy,,,,,z,882,True,False,,2,,,,False,110,LF-222,materials/cfd/Images/CFD/LF-222/CFD-LF-222-147-N.jpg,WM-017,materials/cfd/Images/CFD/WM-017/CFD-WM-017-005-HO.jpg,z,1
3,1,47,study,1,female,Black,male,Black,neutral,,,,,z,976,True,False,,2,,,,False,112,BF-223,materials/cfd/Images/CFD/BF-223/CFD-BF-223-250-N.jpg,BM-027,materials/cfd/Images/CFD/BM-027/CFD-BM-027-001-N.jpg,z,1
3,1,48,study,1,male,Black,male,White,happy,,,,,z,996,False,False,,2,,,,False,114,BM-237,materials/cfd/Images/CFD/BM-237/CFD-BM-237-188-N.jpg,WM-009,materials/cfd/Images/CFD/WM-009/CFD-WM-009-004-HO.jpg,m,1
3,1,49,study,1,female,Black,female,White,neutral,,,,,m,878,False,False,,2,,,,False,116,BF-017,materials/cfd/Images/CFD/BF-017/CFD-BF-017-003-N.jpg,WF-029,materials/cfd/Images/CFD/WF-029/CFD-WF-029-002-N.jpg,z,1
3,1,50,study,1,female,Latino,male,White,neutral,,,,,z,663,True,False,,2,,,,False,118,LF-252,materials/cfd/Images/CFD/LF-252/CFD-LF-252-172-N.jpg,WM-257,materials/cfd/Images/CFD/WM-257/CFD-WM-257-161-N.jpg,z,1
3,1,51,study,1,female,White,female,Black,angry,,,,,m,699,False,False,,2,,,,False,120,WF-006,materials/cfd/Images/CFD/WF-006/CFD-WF-006-002-N.jpg,BF-039,materials/cfd/Images/CFD/BF-039/CFD-BF-039-039-A.jpg,z,1
3,1,52,study,1,male,Asian,male,Black,neutral,,,,,z,800,False,False,,2,,,,False,122,AM-220,materials/cfd/Images/CFD/AM-220/CFD-AM-220-134-N.jpg,BM-211,materials/cfd/Images/CFD/BM-211/CFD-BM-211-174-N.jpg,m,1
3,1,53,study,1,female,White,male,Black,angry,,,,,z,1095,True,False,,2,,,,False,124,WF-227,materials/cfd/Images/CFD/WF-227/CFD-WF-227-002-N.jpg,BM-001,materials/cfd/Images/CFD/BM-001/CFD-BM-001-022-A.jpg,z,1
3,1,54,study,1,male,Black,female,White,neutral,,,,,m,1154,True,False,,2,,,,False,126,BM-016,materials/cfd/Images/CFD/BM-016/CFD-BM-016-036-N.jpg,WF-216,materials/cfd/Images/CFD/WF-216/CFD-WF-216-079-N.jpg,m,1
3,1,55,study,1,female,Black,male,Black,happy,,,,,z,561,True,False,,2,,,,False,128,BF-247,materials/cfd/Images/CFD/BF-247/CFD-BF-247-179-N.jpg,BM-036,materials/cfd/Images/CFD/BM-036/CFD-BM-036-004-HO.jpg,z,1
3,1,56,study,1,male,Latino,female,White,angry,,,,,m,1164,True,False,,2,,,,False,130,LM-242,materials/cfd/Images/CFD/LM-242/CFD-LM-242-002-N.jpg,WF-028,materials/cfd/Images/CFD/WF-028/CFD-WF-028-026-A.jpg,m,1
3,1,57,study,1,male,Asian,female,Black,happy,,,,,z,1385,False,False,,2,,,,False,132,AM-249,materials/cfd/Images/CFD/AM-249/CFD-AM-249-163-N.jpg,BF-014,materials/cfd/Images/CFD/BF-014/CFD-BF-014-004-HO.jpg,m,1
3,1,58,study,1,male,Latino,male,Black,neutral,,,,,z,673,False,False,,2,,,,False,134,LM-226,materials/cfd/Images/CFD/LM-226/CFD-LM-226-175-N.jpg,BM-201,materials/cfd/Images/CFD/BM-201/CFD-BM-201-077-N.jpg,m,1
3,1,59,study,1,female,Asian,male,White,neutral,,,,,z,1333,True,False,,2,,,,False,136,AF-215,materials/cfd/Images/CFD/AF-215/CFD-AF-215-70-N.jpg,WM-236,materials/cfd/Images/CFD/WM-236/CFD-WM-236-072-N.jpg,z,1
3,1,60,study,1,female,White,female,Black,angry,,,,,m,625,False,False,,2,,,,False,138,WF-015,materials/cfd/Images/CFD/WF-015/CFD-WF-015-006-N.jpg,BF-010,materials/cfd/Images/CFD/BF-010/CFD-BF-010-019-A.jpg,z,1
3,1,61,test,0,male,Black,,,,new,,,,z,794,True,False,,2,,,,False,155,BM-225,materials/cfd/Images/CFD/BM-225/CFD-BM-225-154-N.jpg,,,z,1
3,1,62,test,0,male,White,,,,old,angry,male,,m,1098,True,False,,2,,,,False,157,WM-025,materials/cfd/Images/CFD/WM-025/CFD-WM-025-002-N.jpg,,,m,1
3,1,63,test,0,female,White,,,,new,,,,z,616,True,False,,2,,,,False,159,WF-250,materials/cfd/Images/CFD/WF-250/CFD-WF-250-167-N.jpg,,,z,1
3,1,64,test,0,male,Latino,,,,new,,,,z,1046,True,False,,2,,,,False,161,LM-227,materials/cfd/Images/CFD/LM-227/CFD-LM-227-103-N.jpg,,,z,1
3,1,65,test,0,male,Black,,,,old,neutral,female,,m,668,True,False,,2,,,,False,163,BM-016,materials/cfd/Images/CFD/BM-016/CFD-BM-016-036-N.jpg,,,m,1
3,1,66,test,0,female,Asian,,,,old,neutral,female,,z,968,False,False,,2,,,,False,165,AF-247,materials/cfd/Images/CFD/AF-247/CFD-AF-247-278-N.jpg,,,m,1
3,1,67,test,0,male,White,,,,new,,,,z,803,True,False,,2,,,,False,167,WM-004,materials/cfd/Images/CFD/WM-004/CFD-WM-004-010-N.jpg,,,z,1
3,1,68,test,0,female,Black,,,,old,happy,female,,z,725,False,False,,2,,,,False,169,BF-204,materials/cfd/Images/CFD/BF-204/CFD-BF-204-189-N.jpg,,,m,1
3,1,69,test,0,female,Latino,,,,new,,,,z,1281,True,False,,2,,,,False,171,LF-235,materials/cfd/Images/CFD/LF-235/CFD-LF-235-219-N.jpg,,,z,1
3,1,70,test,0,female,White,,,,old,angry,female,,z,858,False,False,,2,,,,False,173,WF-213,materials/cfd/Images/CFD/WF-213/CFD-WF-213-031-N.jpg,,,m,1
3,1,71,test,0,female,Black,,,,old,happy,female,,z,757,False,False,,2,,,,False,175,BF-244,materials/cfd/Images/CFD/BF-244/CFD-BF-244-231-N.jpg,,,m,1
3,1,72,test,0,male,White,,,,old,happy,female,,m,1070,True,False,,2,,,,False,177,WM-239,materials/cfd/Images/CFD/WM-239/CFD-WM-239-128-N.jpg,,,m,1
3,1,73,test,0,male,Latino,,,,new,,,,z,827,True,False,,2,,,,False,179,LM-229,materials/cfd/Images/CFD/LM-229/CFD-LM-229-187-N.jpg,,,z,1
3,1,74,test,0,female,White,,,,new,,,,z,873,True,False,,2,,,,False,181,WF-218,materials/cfd/Images/CFD/WF-218/CFD-WF-218-087-N.jpg,,,z,1
3,1,75,test,0,male,Asian,,,,new,,,,m,822,False,False,,2,,,,False,183,AM-230,materials/cfd/Images/CFD/AM-230/CFD-AM-230-150-N.jpg,,,z,1
3,1,76,test,0,female,Latino,,,,old,happy,female,,z,975,False,False,,2,,,,False,185,LF-219,materials/cfd/Images/CFD/LF-219/CFD-LF-219-223-N.jpg,,,m,1
3,1,77,test,0,male,White,,,,old,angry,male,,m,1010,True,False,,2,,,,False,187,WM-210,materials/cfd/Images/CFD/WM-210/CFD-WM-210-057-N.jpg,,,m,1
3,1,78,test,0,female,White,,,,new,,,,m,1108,False,False,,2,,,,False,189,WF-234,materials/cfd/Images/CFD/WF-234/CFD-WF-234-086-N.jpg,,,z,1
3,1,79,test,0,female,Latino,,,,old,happy,female,,m,1590,True,False,,2,,,,False,191,LF-232,materials/cfd/Images/CFD/LF-232/CFD-LF-232-199-N.jpg,,,m,1
3,1,80,test,0,female,Latino,,,,old,neutral,female,,z,1288,False,False,,2,,,,False,193,LF-217,materials/cfd/Images/CFD/LF-217/CFD-LF-217-082-N.jpg,,,m,1
3,1,81,test,0,male,White,,,,new,,,,z,869,True,False,,2,,,,False,195,WM-235,materials/cfd/Images/CFD/WM-235/CFD-WM-235-147-N.jpg,,,z,1
3,1,82,test,0,male,Asian,,,,old,happy,female,,z,866,False,False,,2,,,,False,197,AM-249,materials/cfd/Images/CFD/AM-249/CFD-AM-249-163-N.jpg,,,m,1
3,1,83,test,0,female,Latino,,,,old,angry,male,,m,1252,True,False,,2,,,,False,199,LF-221,materials/cfd/Images/CFD/LF-221/CFD-LF-221-002-N.jpg,,,m,1
3,1,84,test,0,male,Black,,,,new,,,,z,665,True,False,,2,,,,False,201,BM-219,materials/cfd/Images/CFD/BM-219/CFD-BM-219-141-N.jpg,,,z,1
3,1,85,test,0,female,Black,,,,new,,,,z,2225,True,False,,2,,,,False,203,BF-031,materials/cfd/Images/CFD/BF-031/CFD-BF-031-002-N.jpg,,,z,1
3,1,86,test,0,male,Black,,,,new,,,,z,1262,True,False,,2,,,,False,205,BM-030,materials/cfd/Images/CFD/BM-030/CFD-BM-030-003-N.jpg,,,z,1
3,1,87,test,0,female,Black,,,,new,,,,z,1365,True,False,,2,,,,False,207,BF-032,materials/cfd/Images/CFD/BF-032/CFD-BF-032-038-N.jpg,,,z,1
3,1,88,test,0,male,Black,,,,new,,,,m,837,False,False,,2,,,,False,209,BM-040,materials/cfd/Images/CFD/BM-040/CFD-BM-040-002-N.jpg,,,z,1
3,1,89,test,0,female,Black,,,,new,,,,z,739,True,False,,2,,,,False,211,BF-250,materials/cfd/Images/CFD/BF-250/CFD-BF-250-121-N.jpg,,,z,1
3,1,90,test,0,female,Latino,,,,new,,,,z,1236,True,False,,2,,,,False,213,LF-205,materials/cfd/Images/CFD/LF-205/CFD-LF-205-100-N.jpg,,,z,1
3,1,91,test,0,male,Latino,,,,new,,,,m,1568,False,False,,2,,,,False,215,LM-253,materials/cfd/Images/CFD/LM-253/CFD-LM-253-075-N.jpg,,,z,1
3,1,92,test,0,male,Black,,,,old,angry,male,,,,False,True,,2,,,,False,217,BM-233,materials/cfd/Images/CFD/BM-233/CFD-BM-233-285-N.jpg,,,m,1
3,1,93,test,0,male,Asian,,,,new,,,,z,932,True,False,,2,,,,False,219,AM-246,materials/cfd/Images/CFD/AM-246/CFD-AM-246-184-N.jpg,,,z,1
3,1,94,test,0,female,Asian,,,,new,,,,z,978,True,False,,2,,,,False,221,AF-207,materials/cfd/Images/CFD/AF-207/CFD-AF-207-023-N.jpg,,,z,1
3,1,95,test,0,female,White,,,,old,happy,female,,z,734,False,False,,2,,,,False,223,WF-224,materials/cfd/Images/CFD/WF-224/CFD-WF-224-099-N.jpg,,,m,1
3,1,96,test,0,male,Latino,,,,old,happy,male,,z,921,False,False,,2,,,,False,225,LM-241,materials/cfd/Images/CFD/LM-241/CFD-LM-241-125-N.jpg,,,m,1
3,1,97,test,0,male,Black,,,,new,,,,z,640,True,False,,2,,,,False,227,BM-248,materials/cfd/Images/CFD/BM-248/CFD-BM-248-128-N.jpg,,,z,1
3,1,98,test,0,male,Black,,,,old,angry,female,,z,790,False,False,,2,,,,False,229,BM-249,materials/cfd/Images/CFD/BM-249/CFD-BM-249-235-N.jpg,,,m,1
3,1,99,test,0,female,Latino,,,,old,angry,male,,z,654,False,False,,2,,,,False,231,LF-206,materials/cfd/Images/CFD/LF-206/CFD-LF-206-078-N.jpg,,,m,1
3,1,100,test,0,female,Latino,,,,old,neutral,male,,m,906,True,False,,2,,,,False,233,LF-252,materials/cfd/Images/CFD/LF-252/CFD-LF-252-172-N.jpg,,,m,1
3,1,101,test,1,male,Asian,,,,new,,,,m,888,False,False,,2,,,,False,236,AM-229,materials/cfd/Images/CFD/AM-229/CFD-AM-229-224-N.jpg,,,z,1
3,1,102,test,1,male,Latino,,,,new,,,,z,672,True,False,,2,,,,False,238,LM-220,materials/cfd/Images/CFD/LM-220/CFD-LM-220-329-N.jpg,,,z,1
3,1,103,test,1,female,Black,,,,old,happy,male,,m,709,True,False,,2,,,,False,240,BF-020,materials/cfd/Images/CFD/BF-020/CFD-BF-020-002-N.jpg,,,m,1
3,1,104,test,1,female,White,,,,new,,,,z,543,True,False,,2,,,,False,242,WF-240,materials/cfd/Images/CFD/WF-240/CFD-WF-240-083-N.jpg,,,z,1
3,1,105,test,1,female,White,,,,new,,,,m,862,False,False,,2,,,,False,244,WF-251,materials/cfd/Images/CFD/WF-251/CFD-WF-251-014-N.jpg,,,z,1
3,1,106,test,1,female,Asian,,,,new,,,,z,1155,True,False,,2,,,,False,246,AF-236,materials/cfd/Images/CFD/AF-236/CFD-AF-236-145-N.jpg,,,z,1
3,1,107,test,1,male,White,,,,new,,,,z,699,True,False,,2,,,,False,248,WM-230,materials/cfd/Images/CFD/WM-230/CFD-WM-230-131-N.jpg,,,z,1
3,1,108,test,1,female,Asian,,,,new,,,,z,603,True,False,,2,,,,False,250,AF-246,materials/cfd/Images/CFD/AF-246/CFD-AF-246-242-N.jpg,,,z,1
3,1,109,test,1,female,White,,,,old,neutral,male,,m,2000,True,False,,2,,,,False,252,WF-208,materials/cfd/Images/CFD/WF-208/CFD-WF-208-068-N.jpg,,,m,1
3,1,110,test,1,male,Asian,,,,old,neutral,male,,z,742,False,False,,2,,,,False,254,AM-220,materials/cfd/Images/CFD/AM-220/CFD-AM-220-134-N.jpg,,,m,1
3,1,111,test,1,female,Latino,,,,new,,,,z,690,True,False,,2,,,,False,256,LF-249,materials/cfd/Images/CFD/LF-249/CFD-LF-249-132-N.jpg,,,z,1
3,1,112,test,1,male,Latino,,,,old,happy,female,,z,2191,False,False,,2,,,,False,258,LM-214,materials/cfd/Images/CFD/LM-214/CFD-LM-214-165-N.jpg,,,m,1
3,1,113,test,1,male,White,,,,old,neutral,male,,z,774,False,False,,2,,,,False,260,WM-224,materials/cfd/Images/CFD/WM-224/CFD-WM-224-197-N.jpg,,,m,1
3,1,114,test,1,female,White,,,,old,neutral,female,,z,1489,False,False,,2,,,,False,262,WF-239,materials/cfd/Images/CFD/WF-239/CFD-WF-239-155-N.jpg,,,m,1
3,1,115,test,1,female,White,,,,old,angry,male,,z,858,False,False,,2,,,,False,264,WF-227,materials/cfd/Images/CFD/WF-227/CFD-WF-227-002-N.jpg,,,m,1
3,1,116,test,1,male,White,,,,old,happy,male,,z,764,False,False,,2,,,,False,266,WM-014,materials/cfd/Images/CFD/WM-014/CFD-WM-014-002-N.jpg,,,m,1
3,1,117,test,1,male,White,,,,new,,,,z,908,True,False,,2,,,,False,268,WM-029,materials/cfd/Images/CFD/WM-029/CFD-WM-029-023-N.jpg,,,z,1
3,1,118,test,1,male,Asian,,,,old,happy,female,,z,706,False,False,,2,,,,False,270,AM-213,materials/cfd/Images/CFD/AM-213/CFD-AM-213-056-N.jpg,,,m,1
3,1,119,test,1,female,White,,,,new,,,,m,1423,False,False,,2,,,,False,272,WF-215,materials/cfd/Images/CFD/WF-215/CFD-WF-215-145-N.jpg,,,z,1
3,1,120,test,1,male,Asian,,,,old,happy,male,,z,677,False,False,,2,,,,False,274,AM-235,materials/cfd/Images/CFD/AM-235/CFD-AM-235-241-N.jpg,,,m,1
3,1,121,test,1,male,White,,,,new,,,,z,804,True,False,,2,,,,False,276,WM-233,materials/cfd/Images/CFD/WM-233/CFD-WM-233-106-N.jpg,,,z,1
3,1,122,test,1,male,White,,,,new,,,,z,725,True,False,,2,,,,False,278,WM-214,materials/cfd/Images/CFD/WM-214/CFD-WM-214-026-N.jpg,,,z,1
3,1,123,test,1,female,Asian,,,,old,happy,male,,,,False,True,,2,,,,False,280,AF-244,materials/cfd/Images/CFD/AF-244/CFD-AF-244-168-N.jpg,,,m,1
3,1,124,test,1,female,Black,,,,new,,,,z,1503,True,False,,2,,,,False,282,BF-212,materials/cfd/Images/CFD/BF-212/CFD-BF-212-315-N.jpg,,,z,1
3,1,125,test,1,male,Black,,,,new,,,,z,1035,True,False,,2,,,,False,284,BM-214,materials/cfd/Images/CFD/BM-214/CFD-BM-214-075-N.jpg,,,z,1
3,1,126,test,1,female,Asian,,,,new,,,,z,597,True,False,,2,,,,False,286,AF-235,materials/cfd/Images/CFD/AF-235/CFD-AF-235-170-N.jpg,,,z,1
3,1,127,test,1,male,White,,,,old,neutral,male,,z,797,False,False,,2,,,,False,288,WM-001,materials/cfd/Images/CFD/WM-001/CFD-WM-001-014-N.jpg,,,m,1
3,1,128,test,1,female,White,,,,old,happy,male,,z,614,False,False,,2,,,,False,290,WF-021,materials/cfd/Images/CFD/WF-021/CFD-WF-021-002-N.jpg,,,m,1
3,1,129,test,1,male,White,,,,old,angry,female,,z,645,False,False,,2,,,,False,292,WM-218,materials/cfd/Images/CFD/WM-218/CFD-WM-218-074-N.jpg,,,m,1
3,1,130,test,1,female,Asian,,,,new,,,,z,828,True,False,,2,,,,False,294,AF-226,materials/cfd/Images/CFD/AF-226/CFD-AF-226-251-N.jpg,,,z,1
3,1,131,test,1,female,Asian,,,,old,neutral,male,,z,649,False,False,,2,,,,False,296,AF-231,materials/cfd/Images/CFD/AF-231/CFD-AF-231-357-N.jpg,,,m,1
3,1,132,test,1,female,Black,,,,new,,,,z,1231,True,False,,2,,,,False,298,BF-043,materials/cfd/Images/CFD/BF-043/CFD-BF-043-003-N.jpg,,,z,1
3,1,133,test,1,male,Black,,,,old,angry,female,,z,709,False,False,,2,,,,False,300,BM-250,materials/cfd/Images/CFD/BM-250/CFD-BM-250-170-N.jpg,,,m,1
3,1,134,test,1,female,Latino,,,,new,,,,z,873,True,False,,2,,,,False,302,LF-238,materials/cfd/Images/CFD/LF-238/CFD-LF-238-154-N.jpg,,,z,1
3,1,135,test,1,male,Black,,,,old,neutral,female,,z,1081,False,False,,2,,,,False,304,BM-024,materials/cfd/Images/CFD/BM-024/CFD-BM-024-001-N.jpg,,,m,1
3,1,136,test,1,female,White,,,,new,,,,z,859,True,False,,2,,,,False,306,WF-017,materials/cfd/Images/CFD/WF-017/CFD-WF-017-003-N.jpg,,,z,1
3,1,137,test,1,male,Latino,,,,old,neutral,male,,z,1601,False,False,,2,,,,False,308,LM-226,materials/cfd/Images/CFD/LM-226/CFD-LM-226-175-N.jpg,,,m,1
3,1,138,test,1,female,White,,,,new,,,,z,1081,True,False,,2,,,,False,310,WF-225,materials/cfd/Images/CFD/WF-225/CFD-WF-225-101-N.jpg,,,z,1
3,1,139,test,1,female,Latino,,,,old,angry,female,,z,617,False,False,,2,,,,False,312,LF-242,materials/cfd/Images/CFD/LF-242/CFD-LF-242-121-N.jpg,,,m,1
3,1,140,test,1,female,White,,,,new,,,,z,496,True,False,,2,,,,False,314,WF-237,materials/cfd/Images/CFD/WF-237/CFD-WF-237-067-N.jpg,,,z,1
3,1,141,test,2,male,Black,,,,old,happy,male,,m,1070,True,False,,2,,,,False,317,BM-237,materials/cfd/Images/CFD/BM-237/CFD-BM-237-188-N.jpg,,,m,1
3,1,142,test,2,female,Latino,,,,new,,,,z,800,True,False,,2,,,,False,319,LF-210,materials/cfd/Images/CFD/LF-210/CFD-LF-210-220-N.jpg,,,z,1
3,1,143,test,2,male,White,,,,new,,,,z,688,True,False,,2,,,,False,321,WM-211,materials/cfd/Images/CFD/WM-211/CFD-WM-211-054-N.jpg,,,z,1
3,1,144,test,2,male,Latino,,,,old,angry,female,,z,988,False,False,,2,,,,False,323,LM-242,materials/cfd/Images/CFD/LM-242/CFD-LM-242-002-N.jpg,,,m,1
3,1,145,test,2,female,White,,,,old,angry,female,,z,519,False,False,,2,,,,False,325,WF-015,materials/cfd/Images/CFD/WF-015/CFD-WF-015-006-N.jpg,,,m,1
3,1,146,test,2,female,White,,,,old,angry,female,,m,620,True,False,,2,,,,False,327,WF-006,materials/cfd/Images/CFD/WF-006/CFD-WF-006-002-N.jpg,,,m,1
3,1,147,test,2,female,Black,,,,old,angry,male,,z,811,False,False,,2,,,,False,329,BF-049,materials/cfd/Images/CFD/BF-049/CFD-BF-049-032-N.jpg,,,m,1
3,1,148,test,2,male,White,,,,old,neutral,male,,z,854,False,False,,2,,,,False,331,WM-243,materials/cfd/Images/CFD/WM-243/CFD-WM-243-107-N.jpg,,,m,1
3,1,149,test,2,male,Black,,,,new,,,,z,860,True,False,,2,,,,False,333,BM-209,materials/cfd/Images/CFD/BM-209/CFD-BM-209-088-N.jpg,,,z,1
3,1,150,test,2,female,Black,,,,old,neutral,male,,z,1392,False,False,,2,,,,False,335,BF-223,materials/cfd/Images/CFD/BF-223/CFD-BF-223-250-N.jpg,,,m,1
3,1,151,test,2,male,Asian,,,,new,,,,z,636,True,False,,2,,,,False,337,AM-240,materials/cfd/Images/CFD/AM-240/CFD-AM-240-191-N.jpg,,,z,1
3,1,152,test,2,female,Latino,,,,old,happy,male,,z,574,False,False,,2,,,,False,339,LF-222,materials/cfd/Images/CFD/LF-222/CFD-LF-222-147-N.jpg,,,m,1
3,1,153,test,2,female,Black,,,,new,,,,z,549,True,False,,2,,,,False,341,BF-013,materials/cfd/Images/CFD/BF-013/CFD-BF-013-001-N.jpg,,,z,1
3,1,154,test,2,female,Black,,,,new,,,,z,978,True,False,,2,,,,False,343,BF-219,materials/cfd/Images/CFD/BF-219/CFD-BF-219-137-N.jpg,,,z,1
3,1,155,test,2,female,Asian,,,,old,neutral,male,,z,1896,False,False,,2,,,,False,345,AF-215,materials/cfd/Images/CFD/AF-215/CFD-AF-215-70-N.jpg,,,m,1
3,1,156,test,2,female,Asian,,,,new,,,,z,644,True,False,,2,,,,False,347,AF-216,materials/cfd/Images/CFD/AF-216/CFD-AF-216-106-N.jpg,,,z,1
3,1,157,test,2,male,Black,,,,new,,,,z,1184,True,False,,2,,,,False,349,BM-216,materials/cfd/Images/CFD/BM-216/CFD-BM-216-088-N.jpg,,,z,1
3,1,158,test,2,female,White,,,,old,neutral,female,,z,544,False,False,,2,,,,False,351,WF-033,materials/cfd/Images/CFD/WF-033/CFD-WF-033-002-N.jpg,,,m,1
3,1,159,test,2,male,White,,,,new,,,,z,715,True,False,,2,,,,False,353,WM-225,materials/cfd/Images/CFD/WM-225/CFD-WM-225-127-N.jpg,,,z,1
3,1,160,test,2,male,White,,,,new,,,,z,533,True,False,,2,,,,False,355,WM-039,materials/cfd/Images/CFD/WM-039/CFD-WM-039-018-N.jpg,,,z,1
3,1,161,test,2,male,Asian,,,,old,neutral,female,,z,1129,False,False,,2,,,,False,357,AM-214,materials/cfd/Images/CFD/AM-214/CFD-AM-214-168-N.jpg,,,m,1
3,1,162,test,2,male,Black,,,,old,neutral,female,,z,2926,False,False,,2,,,,False,359,BM-031,materials/cfd/Images/CFD/BM-031/CFD-BM-031-003-N.jpg,,,m,1
3,1,163,test,2,female,White,,,,new,,,,z,1104,True,False,,2,,,,False,361,WF-246,materials/cfd/Images/CFD/WF-246/CFD-WF-246-087-N.jpg,,,z,1
3,1,164,test,2,female,Black,,,,old,happy,male,,z,1186,False,False,,2,,,,False,363,BF-247,materials/cfd/Images/CFD/BF-247/CFD-BF-247-179-N.jpg,,,m,1
3,1,165,test,2,male,Asian,,,,new,,,,,,False,True,,2,,,,False,365,AM-251,materials/cfd/Images/CFD/AM-251/CFD-AM-251-124-N.jpg,,,z,1
3,1,166,test,2,male,Asian,,,,old,angry,male,,z,875,False,False,,2,,,,False,367,AM-211,materials/cfd/Images/CFD/AM-211/CFD-AM-211-052-N.jpg,,,m,1
3,1,167,test,2,male,White,,,,new,,,,z,1527,True,False,,2,,,,False,369,WM-254,materials/cfd/Images/CFD/WM-254/CFD-WM-254-152-N.jpg,,,z,1
3,1,168,test,2,female,White,,,,new,,,,z,844,True,False,,2,,,,False,371,WF-230,materials/cfd/Images/CFD/WF-230/CFD-WF-230-158-N.jpg,,,z,1
3,1,169,test,2,male,Latino,,,,old,angry,female,,m,633,True,False,,2,,,,False,373,LM-249,materials/cfd/Images/CFD/LM-249/CFD-LM-249-001-N.jpg,,,m,1
3,1,170,test,2,male,White,,,,old,neutral,female,,z,603,False,False,,2,,,,False,375,WM-255,materials/cfd/Images/CFD/WM-255/CFD-WM-255-219-N.jpg,,,m,1
3,1,171,test,2,male,Black,,,,new,,,,z,890,True,False,,2,,,,False,377,BM-032,materials/cfd/Images/CFD/BM-032/CFD-BM-032-024-N.jpg,,,z,1
3,1,172,test,2,male,White,,,,old,happy,male,,z,825,False,False,,2,,,,False,379,WM-023,materials/cfd/Images/CFD/WM-023/CFD-WM-023-001-N.jpg,,,m,1
3,1,173,test,2,male,Black,,,,old,happy,female,,z,723,False,False,,2,,,,False,381,BM-222,materials/cfd/Images/CFD/BM-222/CFD-BM-222-173-N.jpg,,,m,1
3,1,174,test,2,female,Asian,,,,old,angry,female,,z,829,False,False,,2,,,,False,383,AF-250,materials/cfd/Images/CFD/AF-250/CFD-AF-250-200-N.jpg,,,m,1
3,1,175,test,2,male,Latino,,,,new,,,,z,667,True,False,,2,,,,False,385,LM-228,materials/cfd/Images/CFD/LM-228/CFD-LM-228-188-N.jpg,,,z,1
3,1,176,test,2,female,Asian,,,,new,,,,m,1538,False,False,,2,,,,False,387,AF-204,materials/cfd/Images/CFD/AF-204/CFD-AF-204-067-N.jpg,,,z,1
3,1,177,test,2,female,Black,,,,old,neutral,female,,z,1715,False,False,,2,,,,False,389,BF-017,materials/cfd/Images/CFD/BF-017/CFD-BF-017-003-N.jpg,,,m,1
3,1,178,test,2,male,Asian,,,,new,,,,z,722,True,False,,2,,,,False,391,AM-205,materials/cfd/Images/CFD/AM-205/CFD-AM-205-153-N.jpg,,,z,1
3,1,179,test,2,male,Black,,,,old,angry,male,,m,1031,True,False,,2,,,,False,393,BM-023,materials/cfd/Images/CFD/BM-023/CFD-BM-023-029-N.jpg,,,m,1
3,1,180,test,2,female,White,,,,old,angry,male,,z,703,False,False,,2,,,,False,395,WF-226,materials/cfd/Images/CFD/WF-226/CFD-WF-226-095-N.jpg,,,m,1
4,1,1,study,0,female,Asian,male,White,happy,,,,,m,1665,False,False,,2,,,,False,19,AF-233,materials/cfd/Images/CFD/AF-233/CFD-AF-233-190-N.jpg,WM-024,materials/cfd/Images/CFD/WM-024/CFD-WM-024-003-HO.jpg,z,1
4,1,2,study,0,male,Black,female,Black,neutral,,,,,m,1761,True,False,,2,,,,False,21,BM-224,materials/cfd/Images/CFD/BM-224/CFD-BM-224-073-N.jpg,BF-241,materials/cfd/Images/CFD/BF-241/CFD-BF-241-222-N.jpg,m,1
4,1,3,study,0,male,White,female,White,neutral,,,,,m,1522,True,False,,2,,,,False,23,WM-240,materials/cfd/Images/CFD/WM-240/CFD-WM-240-125-N.jpg,WF-235,materials/cfd/Images/CFD/WF-235/CFD-WF-235-121-N.jpg,m,1
4,1,4,study,0,female,White,female,White,angry,,,,,z,905,True,False,,2,,,,False,25,WF-002,materials/cfd/Images/CFD/WF-002/CFD-WF-002-004-N.jpg,WF-034,materials/cfd/Images/CFD/WF-034/CFD-WF-034-016-A.jpg,z,1
4,1,5,study,0,male,Latino,male,White,neutral,,,,,m,1319,True,False,,2,,,,False,27,LM-224,materials/cfd/Images/CFD/LM-224/CFD-LM-224-162-N.jpg,WM-022,materials/cfd/Images/CFD/WM-022/CFD-WM-022-001-N.jpg,m,1
4,1,6,study,0,female,Asian,male,Black,neutral,,,,,z,1037,True,False,,2,,,,False,29,AF-240,materials/cfd/Images/CFD/AF-240/CFD-AF-240-206-N.jpg,BM-245,materials/cfd/Images/CFD/BM-245/CFD-BM-245-164-N.jpg,z,1
4,1,7,study,0,female,White,male,White,neutral,,,,,z,800,True,False,,2,,,,False,31,WF-216,materials/cfd/Images/CFD/WF-216/CFD-WF-216-079-N.jpg,WM-002,materials/cfd/Images/CFD/WM-002/CFD-WM-002-009-N.jpg,z,1
4,1,8,study,0,male,Asian,male,White,neutral,,,,,m,1159,True,False,,2,,,,False,33,AM-211,materials/cfd/Images/CFD/AM-211/CFD-AM-211-052-N.jpg,WM-222,materials/cfd/Images/CFD/WM-222/CFD-WM-222-057-N.jpg,m,1
4,1,9,study,0,female,White,male,White,angry,,,,,z,1118,True,False,,2,,,,False,35,WF-022,materials/cfd/Images/CFD/WF-022/CFD-WF-022-017-N.jpg,WM-021,materials/cfd/Images/CFD/WM-021/CFD-WM-021-009-A.jpg,z,1
4,1,10,study,0,male,Black,female,White,angry,,,,,m,823,True,False,,2,,,,False,37,BM-201,materials/cfd/Images/CFD/BM-201/CFD-BM-201-077-N.jpg,WF-020,materials/cfd/Images/CFD/WF-020/CFD-WF-020-012-A.jpg,m,1
4,1,11,study,0,female,Latino,female,White,neutral,,,,,z,1033,True,False,,2,,,,False,39,LF-239,materials/cfd/Images/CFD/LF-239/CFD-LF-239-148-N.jpg,WF-215,materials/cfd/Images/CFD/WF-215/CFD-WF-215-145-N.jpg,z,1
4,1,12,study,0,female,Latino,female,White,neutral,,,,,m,1337,False,False,,2,,,,False,41,LF-238,materials/cfd/Images/CFD/LF-238/CFD-LF-238-154-N.jpg,WF-223,materials/cfd/Images/CFD/WF-223/CFD-WF-223-133-N.jpg,z,1
4,1,13,study,0,female,White,female,White,happy,,,,,z,1565,True,False,,2,,,,False,43,WF-226,materials/cfd/Images/CFD/WF-226/CFD-WF-226-095-N.jpg,WF-014,materials/cfd/Images/CFD/WF-014/CFD-WF-014-004-HO.jpg,z,1
4,1,14,study,0,male,Asian,female,White,neutral,,,,,m,1423,True,False,,2,,,,False,45,AM-247,materials/cfd/Images/CFD/AM-247/CFD-AM-247-165-N.jpg,WF-241,materials/cfd/Images/CFD/WF-241/CFD-WF-241-210-N.jpg,m,1
4,1,15,study,0,male,Asian,female,Black,neutral,,,,,m,662,True,False,,2,,,,False,47,AM-245,materials/cfd/Images/CFD/AM-245/CFD-AM-245-111-N.jpg,BF-039,materials/cfd/Images/CFD/BF-039/CFD-BF-039-031-N.jpg,m,1
4,1,16,study,0,female,White,female,White,angry,,,,,m,380,False,False,,2,,,,False,49,WF-036,materials/cfd/Images/CFD/WF-036/CFD-WF-036-023-N.jpg,WF-027,materials/cfd/Images/CFD/WF-027/CFD-WF-027-014-A.jpg,z,1
4,1,17,study,0,male,Latino,female,Black,angry,,,,,z,1869,False,False,,2,,,,False,51,LM-233,materials/cfd/Images/CFD/LM-233/CFD-LM-233-171-N.jpg,BF-007,materials/cfd/Images/CFD/BF-007/CFD-BF-007-013-A.jpg,m,1
4,1,18,study,0,male,White,female,White,angry,,,,,m,1182,True,False,,2,,,,False,53,WM-202,materials/cfd/Images/CFD/WM-202/CFD-WM-202-107-N.jpg,WF-017,materials/cfd/Images/CFD/WF-017/CFD-WF-017-023-A.jpg,m,1
4,1,19,study,0,female,Asian,male,Black,neutral,,,,,z,1103,True,False,,2,,,,False,55,AF-221,materials/cfd/Images/CFD/AF-221/CFD-AF-221-147-N.jpg,BM-017,materials/cfd/Images/CFD/BM-017/CFD-BM-017-021-N.jpg,z,1
4,1,20,study,0,female,Asian,male,White,angry,,,,,z,1086,True,False,,2,,,,False,57,AF-251,materials/cfd/Images/CFD/AF-251/CFD-AF-251-093-N.jpg,WM-037,materials/cfd/Images/CFD/WM-037/CFD-WM-037-060-A.jpg,z,1
4,1,21,study,0,male,White,male,White,angry,,,,,m,2689,True,False,,2,,,,False,59,WM-218,materials/cfd/Images/CFD/WM-218/CFD-WM-218-074-N.jpg,WM-009,materials/cfd/Images/CFD/WM-009/CFD-WM-009-009-A.jpg,m,1
4,1,22,study,0,male,Asian,male,White,neutral,,,,,m,1967,True,False,,2,,,,False,61,AM-213,materials/cfd/Images/CFD/AM-213/CFD-AM-213-056-N.jpg,WM-214,materials/cfd/Images/CFD/WM-214/CFD-WM-214-026-N.jpg,m,1
4,1,23,study,0,female,Asian,female,Black,angry,,,,,z,760,True,False,,2,,,,False,63,AF-224,materials/cfd/Images/CFD/AF-224/CFD-AF-224-026-N.jpg,BF-015,materials/cfd/Images/CFD/BF-015/CFD-BF-015-022-A.jpg,z,1
4,1,24,study,0,male,Latino,male,Black,neutral,,,,,z,1191,False,False,,2,,,,False,65,LM-251,materials/cfd/Images/CFD/LM-251/CFD-LM-251-073-N.jpg,BM-004,materials/cfd/Images/CFD/BM-004/CFD-BM-004-002-N.jpg,m,1
4,1,25,study,0,female,Black,male,White,happy,,,,,z,973,True,False,,2,,,,False,67,BF-243,materials/cfd/Images/CFD/BF-243/CFD-BF-243-164-N.jpg,WM-019,materials/cfd/Images/CFD/WM-019/CFD-WM-019-009-HO.jpg,z,1
4,1,26,study,0,male,Black,female,White,happy,,,,,m,795,True,False,,2,,,,False,69,BM-015,materials/cfd/Images/CFD/BM-015/CFD-BM-015-015-N.jpg,WF-016,materials/cfd/Images/CFD/WF-016/CFD-WF-016-003-HO.jpg,m,1
4,1,27,study,0,male,Asian,female,Black,happy,,,,,m,841,True,False,,2,,,,False,71,AM-229,materials/cfd/Images/CFD/AM-229/CFD-AM-229-224-N.jpg,BF-005,materials/cfd/Images/CFD/BF-005/CFD-BF-005-005-HO.jpg,m,1
4,1,28,study,0,female,Asian,male,Black,neutral,,,,,z,633,True,False,,2,,,,False,73,AF-227,materials/cfd/Images/CFD/AF-227/CFD-AF-227-207-N.jpg,BM-024,materials/cfd/Images/CFD/BM-024/CFD-BM-024-001-N.jpg,z,1
4,1,29,study,0,female,White,male,Black,angry,,,,,z,697,True,False,,2,,,,False,75,WF-204,materials/cfd/Images/CFD/WF-204/CFD-WF-204-038-N.jpg,BM-003,materials/cfd/Images/CFD/BM-003/CFD-BM-003-030-A.jpg,z,1
4,1,30,study,0,male,Latino,female,Black,neutral,,,,,m,710,True,False,,2,,,,False,77,LM-211,materials/cfd/Images/CFD/LM-211/CFD-LM-211-128-N.jpg,BF-215,materials/cfd/Images/CFD/BF-215/CFD-BF-215-177-N.jpg,m,1
4,1,31,study,1,male,White,female,White,happy,,,,,z,1613,False,False,,2,,,,False,80,WM-216,materials/cfd/Images/CFD/WM-216/CFD-WM-216-061-N.jpg,WF-012,materials/cfd/Images/CFD/WF-012/CFD-WF-012-007-HO.jpg,m,1
4,1,32,study,1,female,Latino,female,White,neutral,,,,,m,1645,False,False,,2,,,,False,82,LF-208,materials/cfd/Images/CFD/LF-208/CFD-LF-208-127-N.jpg,WF-013,materials/cfd/Images/CFD/WF-013/CFD-WF-013-003-N.jpg,z,1
4,1,33,study,1,female,White,female,White,neutral,,,,,z,1170,True,False,,2,,,,False,84,WF-252,materials/cfd/Images/CFD/WF-252/CFD-WF-252-159-N.jpg,WF-038,materials/cfd/Images/CFD/WF-038/CFD-WF-038-021-N.jpg,z,1
4,1,34,study,1,male,White,male,Black,happy,,,,,m,812,True,False,,2,,,,False,86,WM-001,materials/cfd/Images/CFD/WM-001/CFD-WM-001-014-N.jpg,BM-039,materials/cfd/Images/CFD/BM-039/CFD-BM-039-034-HO.jpg,m,1
4,1,35,study,1,male,White,female,White,happy,,,,,m,1358,True,False,,2,,,,False,88,WM-200,materials/cfd/Images/CFD/WM-200/CFD-WM-200-034-N.jpg,WF-001,materials/cfd/Images/CFD/WF-001/CFD-WF-001-009-HO.jpg,m,1
4,1,36,study,1,male,Latino,female,White,angry,,,,,m,912,True,False,,2,,,,False,90,LM-239,materials/cfd/Images/CFD/LM-239/CFD-LM-239-075-N.jpg,WF-009,materials/cfd/Images/CFD/WF-009/CFD-WF-009-010-A.jpg,m,1
4,1,37,study,1,male,White,male,Black,neutral,,,,,,,False,True,,2,,,,False,92,WM-238,materials/cfd/Images/CFD/WM-238/CFD-WM-238-020-N.jpg,BM-012,materials/cfd/Images/CFD/BM-012/CFD-BM-012-018-N.jpg,m,1
4,1,38,study,1,female,Asian,female,White,angry,,,,,z,764,True,False,,2,,,,False,94,AF-216,materials/cfd/Images/CFD/AF-216/CFD-AF-216-106-N.jpg,WF-008,materials/cfd/Images/CFD/WF-008/CFD-WF-008-011-A.jpg,z,1
4,1,39,study,1,male,White,female,Black,happy,,,,,m,955,True,False,,2,,,,False,96,WM-025,materials/cfd/Images/CFD/WM-025/CFD-WM-025-002-N.jpg,BF-048,materials/cfd/Images/CFD/BF-048/CFD-BF-048-005-HO.jpg,m,1
4,1,40,study,1,male,Asian,male,White,happy,,,,,m,1065,True,False,,2,,,,False,98,AM-212,materials/cfd/Images/CFD/AM-212/CFD-AM-212-050-N.jpg,WM-013,materials/cfd/Images/CFD/WM-013/CFD-WM-013-006-HO.jpg,m,1
4,1,41,study,1,male,Black,male,White,happy,,,,,m,942,True,False,,2,,,,False,100,BM-206,materials/cfd/Images/CFD/BM-206/CFD-BM-206-114-N.jpg,WM-038,materials/cfd/Images/CFD/WM-038/CFD-WM-038-005-HO.jpg,m,1
4,1,42,study,1,female,Asian,female,White,angry,,,,,z,945,True,False,,2,,,,False,102,AF-250,materials/cfd/Images/CFD/AF-250/CFD-AF-250-200-N.jpg,WF-024,materials/cfd/Images/CFD/WF-024/CFD-WF-024-029-A.jpg,z,1
4,1,43,study,1,male,White,male,White,angry,,,,,m,967,True,False,,2,,,,False,104,WM-207,materials/cfd/Images/CFD/WM-207/CFD-WM-207-048-N.jpg,WM-003,materials/cfd/Images/CFD/WM-003/CFD-WM-003-008-A.jpg,m,1
4,1,44,study,1,female,White,female,Black,happy,,,,,m,458,False,False,,2,,,,False,106,WF-026,materials/cfd/Images/CFD/WF-026/CFD-WF-026-002-N.jpg,BF-024,materials/cfd/Images/CFD/BF-024/CFD-BF-024-005-HO.jpg,z,1
4,1,45,study,1,female,Black,male,Black,happy,,,,,z,764,True,False,,2,,,,False,108,BF-224,materials/cfd/Images/CFD/BF-224/CFD-BF-224-002-N.jpg,BM-026,materials/cfd/Images/CFD/BM-026/CFD-BM-026-009-HO.jpg,z,1
4,1,46,study,1,male,Black,male,White,angry,,,,,m,2834,True,False,,2,,,,False,110,BM-230,materials/cfd/Images/CFD/BM-230/CFD-BM-230-232-N.jpg,WM-020,materials/cfd/Images/CFD/WM-020/CFD-WM-020-008-A.jpg,m,1
4,1,47,study,1,female,Black,female,White,neutral,,,,,z,637,True,False,,2,,,,False,112,BF-049,materials/cfd/Images/CFD/BF-049/CFD-BF-049-032-N.jpg,WF-203,materials/cfd/Images/CFD/WF-203/CFD-WF-203-229-N.jpg,z,1
4,1,48,study,1,female,Asian,male,White,neutral,,,,,z,826,True,False,,2,,,,False,114,AF-236,materials/cfd/Images/CFD/AF-236/CFD-AF-236-145-N.jpg,WM-201,materials/cfd/Images/CFD/WM-201/CFD-WM-201-063-N.jpg,z,1
4,1,49,study,1,female,Black,male,Black,angry,,,,,m,1537,False,False,,2,,,,False,116,BF-254,materials/cfd/Images/CFD/BF-254/CFD-BF-254-201-N.jpg,BM-021,materials/cfd/Images/CFD/BM-021/CFD-BM-021-026-A.jpg,z,1
4,1,50,study,1,male,White,male,Black,angry,,,,,m,648,True,False,,2,,,,False,118,WM-017,materials/cfd/Images/CFD/WM-017/CFD-WM-017-002-N.jpg,BM-009,materials/cfd/Images/CFD/BM-009/CFD-BM-009-008-A.jpg,m,1
4,1,51,study,1,female,Black,male,White,happy,,,,,m,2699,False,False,,2,,,,False,120,BF-234,materials/cfd/Images/CFD/BF-234/CFD-BF-234-167-N.jpg,WM-028,materials/cfd/Images/CFD/WM-028/CFD-WM-028-007-HO.jpg,z,1
4,1,52,study,1,female,White,female,Black,happy,,,,,z,644,True,False,,2,,,,False,122,WF-035,materials/cfd/Images/CFD/WF-035/CFD-WF-035-024-N.jpg,BF-047,materials/cfd/Images/CFD/BF-047/CFD-BF-047-028-HO.jpg,z,1
4,1,53,study,1,female,White,female,Black,happy,,,,,z,733,True,False,,2,,,,False,124,WF-237,materials/cfd/Images/CFD/WF-237/CFD-WF-237-067-N.jpg,BF-006,materials/cfd/Images/CFD/BF-006/CFD-BF-006-006-HO.jpg,z,1
4,1,54,study,1,male,White,male,White,happy,,,,,m,681,True,False,,2,,,,False,126,WM-241,materials/cfd/Images/CFD/WM-241/CFD-WM-241-072-N.jpg,WM-006,materials/cfd/Images/CFD/WM-006/CFD-WM-006-010-HO.jpg,m,1
