subject_number,condition,trial_number,phase,block,target_gender,target_race,flanker_gender,flanker_race,flanker_emotion,stimulus_type,study_flanker_emotion,study_flanker_gender,pair_type,response,rt,correct,timed_out,rating,key_mapping,subject_id,study_id,session_id,test_mode,trial_index,target_id,target_filename,flanker_id,flanker_filename,correct_response
1,1,1,study,0,female,Black,male,Black,neutral,,,,,m,1546,True,False,,2,,,,False,13,BF-203,materials/cfd/Images/CFD/BF-203/CFD-BF-203-184-N.jpg,BM-252,materials/cfd/Images/CFD/BM-252/CFD-BM-252-161-N.jpg,m
1,1,2,study,0,male,Black,female,Black,angry,,,,,z,1601,True,False,,2,,,,False,15,BM-218,materials/cfd/Images/CFD/BM-218/CFD-BM-218-132-N.jpg,BF-037,materials/cfd/Images/CFD/BF-037/CFD-BF-037-013-A.jpg,z
1,1,3,study,0,male,White,male,Black,neutral,,,,,z,1828,True,False,,2,,,,False,17,WM-211,materials/cfd/Images/CFD/WM-211/CFD-WM-211-054-N.jpg,BM-207,materials/cfd/Images/CFD/BM-207/CFD-BM-207-024-N.jpg,z
1,1,4,study,0,male,Latino,female,White,happy,,,,,m,1223,False,False,,2,,,,False,19,LM-249,materials/cfd/Images/CFD/LM-249/CFD-LM-249-001-N.jpg,WF-024,materials/cfd/Images/CFD/WF-024/CFD-WF-024-006-HO.jpg,z
1,1,5,study,0,male,Asian,male,White,angry,,,,,z,816,True,False,,2,,,,False,21,AM-212,materials/cfd/Images/CFD/AM-212/CFD-AM-212-050-N.jpg,WM-017,materials/cfd/Images/CFD/WM-017/CFD-WM-017-011-A.jpg,z
1,1,6,study,0,female,Black,female,White,neutral,,,,,m,944,True,False,,2,,,,False,23,BF-230,materials/cfd/Images/CFD/BF-230/CFD-BF-230-189-N.jpg,WF-221,materials/cfd/Images/CFD/WF-221/CFD-WF-221-005-N.jpg,m
1,1,7,study,0,male,Black,male,White,happy,,,,,z,1375,True,False,,2,,,,False,25,BM-240,materials/cfd/Images/CFD/BM-240/CFD-BM-240-207-N.jpg,WM-036,materials/cfd/Images/CFD/WM-036/CFD-WM-036-034-HO.jpg,z
1,1,8,study,0,female,White,female,Black,happy,,,,,m,849,True,False,,2,,,,False,27,WF-034,materials/cfd/Images/CFD/WF-034/CFD-WF-034-006-N.jpg,BF-021,materials/cfd/Images/CFD/BF-021/CFD-BF-021-014-HO.jpg,m
1,1,9,study,0,female,Black,male,White,happy,,,,,m,978,True,False,,2,,,,False,29,BF-036,materials/cfd/Images/CFD/BF-036/CFD-BF-036-027-N.jpg,WM-015,materials/cfd/Images/CFD/WM-015/CFD-WM-015-005-HO.jpg,m
1,1,10,study,0,female,White,female,White,angry,,,,,m,1212,True,False,,2,,,,False,31,WF-223,materials/cfd/Images/CFD/WF-223/CFD-WF-223-133-N.jpg,WF-010,materials/cfd/Images/CFD/WF-010/CFD-WF-010-014-A.jpg,m
1,1,11,study,0,male,White,female,Black,neutral,,,,,z,1154,True,False,,2,,,,False,33,WM-257,materials/cfd/Images/CFD/WM-257/CFD-WM-257-161-N.jpg,BF-215,materials/cfd/Images/CFD/BF-215/CFD-BF-215-177-N.jpg,z
1,1,12,study,0,male,White,male,Black,neutral,,,,,z,1463,True,False,,2,,,,False,35,WM-020,materials/cfd/Images/CFD/WM-020/CFD-WM-020-001-N.jpg,BM-209,materials/cfd/Images/CFD/BM-209/CFD-BM-209-088-N.jpg,z
1,1,13,study,0,male,Latino,male,White,happy,,,,,z,1448,True,False,,2,,,,False,37,LM-248,materials/cfd/Images/CFD/LM-248/CFD-LM-248-089-N.jpg,WM-024,materials/cfd/Images/CFD/WM-024/CFD-WM-024-003-HO.jpg,z
1,1,14,study,0,male,Latino,male,White,happy,,,,,z,1075,True,False,,2,,,,False,39,LM-209,materials/cfd/Images/CFD/LM-209/CFD-LM-209-111-N.jpg,WM-016,materials/cfd/Images/CFD/WM-016/CFD-WM-016-002-HO.jpg,z
1,1,15,study,0,male,Black,male,Black,happy,,,,,z,712,True,False,,2,,,,False,41,BM-213,materials/cfd/Images/CFD/BM-213/CFD-BM-213-134-N.jpg,BM-031,materials/cfd/Images/CFD/BM-031/CFD-BM-031-004-HO.jpg,z
1,1,16,study,0,female,Black,female,White,neutral,,,,,m,879,True,False,,2,,,,False,43,BF-242,materials/cfd/Images/CFD/BF-242/CFD-BF-242-154-N.jpg,WF-251,materials/cfd/Images/CFD/WF-251/CFD-WF-251-014-N.jpg,m
1,1,17,study,0,male,Latino,female,Black,angry,,,,,z,1179,True,False,,2,,,,False,45,LM-240,materials/cfd/Images/CFD/LM-240/CFD-LM-240-013-N.jpg,BF-035,materials/cfd/Images/CFD/BF-035/CFD-BF-035-009-A.jpg,z
1,1,18,study,0,female,White,male,Black,happy,,,,,m,1143,True,False,,2,,,,False,47,WF-005,materials/cfd/Images/CFD/WF-005/CFD-WF-005-010-N.jpg,BM-043,materials/cfd/Images/CFD/BM-043/CFD-BM-043-076-HO.jpg,m
1,1,19,study,0,female,Asian,female,Black,neutral,,,,,m,989,True,False,,2,,,,False,49,AF-232,materials/cfd/Images/CFD/AF-232/CFD-AF-232-078-N.jpg,BF-244,materials/cfd/Images/CFD/BF-244/CFD-BF-244-231-N.jpg,m
1,1,20,study,0,female,White,female,White,happy,,,,,m,807,True,False,,2,,,,False,51,WF-237,materials/cfd/Images/CFD/WF-237/CFD-WF-237-067-N.jpg,WF-030,materials/cfd/Images/CFD/WF-030/CFD-WF-030-003-HO.jpg,m
1,1,21,study,0,male,Latino,female,Black,neutral,,,,,z,1157,True,False,,2,,,,False,53,LM-234,materials/cfd/Images/CFD/LM-234/CFD-LM-234-176-N.jpg,BF-220,materials/cfd/Images/CFD/BF-220/CFD-BF-220-161-N.jpg,z
1,1,22,study,0,female,Black,male,Black,neutral,,,,,m,1014,True,False,,2,,,,False,55,BF-255,materials/cfd/Images/CFD/BF-255/CFD-BF-255-140-N.jpg,BM-239,materials/cfd/Images/CFD/BM-239/CFD-BM-239-136-N.jpg,m
1,1,23,study,0,female,Black,female,Black,angry,,,,,m,936,True,False,,2,,,,False,57,BF-246,materials/cfd/Images/CFD/BF-246/CFD-BF-246-170-N.jpg,BF-016,materials/cfd/Images/CFD/BF-016/CFD-BF-016-020-A.jpg,m
1,1,24,study,0,female,Black,female,White,neutral,,,,,m,934,True,False,,2,,,,False,59,BF-221,materials/cfd/Images/CFD/BF-221/CFD-BF-221-223-N.jpg,WF-229,materials/cfd/Images/CFD/WF-229/CFD-WF-229-004-N.jpg,m
1,1,25,study,0,male,Black,male,White,angry,,,,,z,1655,True,False,,2,,,,False,61,BM-250,materials/cfd/Images/CFD/BM-250/CFD-BM-250-170-N.jpg,WM-039,materials/cfd/Images/CFD/WM-039/CFD-WM-039-010-A.jpg,z
1,1,26,study,0,female,Black,male,Black,happy,,,,,m,1218,True,False,,2,,,,False,63,BF-219,materials/cfd/Images/CFD/BF-219/CFD-BF-219-137-N.jpg,BM-033,materials/cfd/Images/CFD/BM-033/CFD-BM-033-029-HO.jpg,m
1,1,27,study,0,female,Latino,male,Black,happy,,,,,m,838,True,False,,2,,,,False,65,LF-244,materials/cfd/Images/CFD/LF-244/CFD-LF-244-096-N.jpg,BM-013,materials/cfd/Images/CFD/BM-013/CFD-BM-013-004-HO.jpg,m
1,1,28,study,0,male,Black,female,White,happy,,,,,z,1205,True,False,,2,,,,False,67,BM-011,materials/cfd/Images/CFD/BM-011/CFD-BM-011-016-N.jpg,WF-022,materials/cfd/Images/CFD/WF-022/CFD-WF-022-019-HO.jpg,z
1,1,29,study,0,male,Latino,male,Black,angry,,,,,z,1851,True,False,,2,,,,False,69,LM-251,materials/cfd/Images/CFD/LM-251/CFD-LM-251-073-N.jpg,BM-036,materials/cfd/Images/CFD/BM-036/CFD-BM-036-037-A.jpg,z
1,1,30,study,0,male,Latino,male,Black,neutral,,,,,z,1092,True,False,,2,,,,False,71,LM-219,materials/cfd/Images/CFD/LM-219/CFD-LM-219-295-N.jpg,BM-038,materials/cfd/Images/CFD/BM-038/CFD-BM-038-001-N.jpg,z
1,1,31,study,0,female,Black,male,Black,neutral,,,,,m,1813,True,False,,2,,,,False,73,BF-003,materials/cfd/Images/CFD/BF-003/CFD-BF-003-003-N.jpg,BM-229,materials/cfd/Images/CFD/BM-229/CFD-BM-229-209-N.jpg,m
1,1,32,study,0,male,Asian,male,Black,angry,,,,,z,1457,True,False,,2,,,,False,75,AM-211,materials/cfd/Images/CFD/AM-211/CFD-AM-211-052-N.jpg,BM-001,materials/cfd/Images/CFD/BM-001/CFD-BM-001-022-A.jpg,z
1,1,33,study,0,male,Asian,female,White,angry,,,,,z,1623,True,False,,2,,,,False,77,AM-252,materials/cfd/Images/CFD/AM-252/CFD-AM-252-114-N.jpg,WF-013,materials/cfd/Images/CFD/WF-013/CFD-WF-013-015-A.jpg,z
1,1,34,study,0,female,Asian,female,Black,happy,,,,,m,1198,True,False,,2,,,,False,79,AF-221,materials/cfd/Images/CFD/AF-221/CFD-AF-221-147-N.jpg,BF-014,materials/cfd/Images/CFD/BF-014/CFD-BF-014-004-HO.jpg,m
1,1,35,study,0,female,Asian,male,Black,neutral,,,,,m,1485,True,False,,2,,,,False,81,AF-215,materials/cfd/Images/CFD/AF-215/CFD-AF-215-70-N.jpg,BM-211,materials/cfd/Images/CFD/BM-211/CFD-BM-211-174-N.jpg,m
1,1,36,study,0,male,White,female,Black,neutral,,,,,z,1541,True,False,,2,,,,False,83,WM-213,materials/cfd/Images/CFD/WM-213/CFD-WM-213-076-N.jpg,BF-254,materials/cfd/Images/CFD/BF-254/CFD-BF-254-201-N.jpg,z
1,1,37,study,0,male,Black,female,White,happy,,,,,z,1399,True,False,,2,,,,False,85,BM-004,materials/cfd/Images/CFD/BM-004/CFD-BM-004-002-N.jpg,WF-021,materials/cfd/Images/CFD/WF-021/CFD-WF-021-016-HO.jpg,z
1,1,38,study,0,female,Latino,female,Black,happy,,,,,m,1312,True,False,,2,,,,False,87,LF-251,materials/cfd/Images/CFD/LF-251/CFD-LF-251-057-N.jpg,BF-030,materials/cfd/Images/CFD/BF-030/CFD-BF-030-007-HO.jpg,m
1,1,39,study,0,male,White,male,White,angry,,,,,z,1203,True,False,,2,,,,False,89,WM-216,materials/cfd/Images/CFD/WM-216/CFD-WM-216-061-N.jpg,WM-026,materials/cfd/Images/CFD/WM-026/CFD-WM-026-019-A.jpg,z
1,1,40,study,0,female,Asian,female,Black,angry,,,,,m,1708,True,False,,2,,,,False,91,AF-252,materials/cfd/Images/CFD/AF-252/CFD-AF-252-135-N.jpg,BF-040,materials/cfd/Images/CFD/BF-040/CFD-BF-040-051-A.jpg,m
1,1,41,study,1,male,White,female,Black,neutral,,,,,z,1333,True,False,,2,,,,False,94,WM-212,materials/cfd/Images/CFD/WM-212/CFD-WM-212-097-N.jpg,BF-218,materials/cfd/Images/CFD/BF-218/CFD-BF-218-207-N.jpg,z
1,1,42,study,1,female,Black,female,Black,happy,,,,,m,1400,True,False,,2,,,,False,96,BF-009,materials/cfd/Images/CFD/BF-009/CFD-BF-009-002-N.jpg,BF-011,materials/cfd/Images/CFD/BF-011/CFD-BF-011-004-HO.jpg,m
1,1,43,study,1,female,Latino,female,Black,neutral,,,,,m,1144,True,False,,2,,,,False,98,LF-221,materials/cfd/Images/CFD/LF-221/CFD-LF-221-002-N.jpg,BF-001,materials/cfd/Images/CFD/BF-001/CFD-BF-001-025-N.jpg,m
1,1,44,study,1,female,Black,male,White,neutral,,,,,m,2361,True,False,,2,,,,False,100,BF-020,materials/cfd/Images/CFD/BF-020/CFD-BF-020-002-N.jpg,WM-252,materials/cfd/Images/CFD/WM-252/CFD-WM-252-224-N.jpg,m
1,1,45,study,1,female,Black,male,Black,neutral,,,,,m,902,True,False,,2,,,,False,102,BF-048,materials/cfd/Images/CFD/BF-048/CFD-BF-048-002-N.jpg,BM-201,materials/cfd/Images/CFD/BM-201/CFD-BM-201-077-N.jpg,m
1,1,46,study,1,male,Asian,female,White,neutral,,,,,z,1374,True,False,,2,,,,False,104,AM-224,materials/cfd/Images/CFD/AM-224/CFD-AM-224-126-N.jpg,WF-242,materials/cfd/Images/CFD/WF-242/CFD-WF-242-001-N.jpg,z
1,1,47,study,1,male,Black,female,Black,neutral,,,,,z,1716,True,False,,2,,,,False,106,BM-044,materials/cfd/Images/CFD/BM-044/CFD-BM-044-001-N.jpg,BF-245,materials/cfd/Images/CFD/BF-245/CFD-BF-245-178-N.jpg,z
1,1,48,study,1,male,Black,male,White,neutral,,,,,z,1346,True,False,,2,,,,False,108,BM-225,materials/cfd/Images/CFD/BM-225/CFD-BM-225-154-N.jpg,WM-240,materials/cfd/Images/CFD/WM-240/CFD-WM-240-125-N.jpg,z
1,1,49,study,1,female,Asian,male,Black,angry,,,,,m,1113,True,False,,2,,,,False,110,AF-212,materials/cfd/Images/CFD/AF-212/CFD-AF-212-097-N.jpg,BM-018,materials/cfd/Images/CFD/BM-018/CFD-BM-018-012-A.jpg,m
1,1,50,study,1,male,Black,female,White,happy,,,,,z,1442,True,False,,2,,,,False,112,BM-241,materials/cfd/Images/CFD/BM-241/CFD-BM-241-235-N.jpg,WF-015,materials/cfd/Images/CFD/WF-015/CFD-WF-015-022-HO.jpg,z
1,1,51,study,1,male,White,female,Black,happy,,,,,z,1480,True,False,,2,,,,False,114,WM-028,materials/cfd/Images/CFD/WM-028/CFD-WM-028-003-N.jpg,BF-008,materials/cfd/Images/CFD/BF-008/CFD-BF-008-003-HO.jpg,z
1,1,52,study,1,male,Latino,female,Black,angry,,,,,z,2057,True,False,,2,,,,False,116,LM-238,materials/cfd/Images/CFD/LM-238/CFD-LM-238-129-N.jpg,BF-047,materials/cfd/Images/CFD/BF-047/CFD-BF-047-046-A.jpg,z
1,1,53,study,1,female,Latino,male,White,angry,,,,,m,942,True,False,,2,,,,False,118,LF-210,materials/cfd/Images/CFD/LF-210/CFD-LF-210-220-N.jpg,WM-040,materials/cfd/Images/CFD/WM-040/CFD-WM-040-007-A.jpg,m
1,1,54,study,1,female,Latino,male,White,angry,,,,,m,1678,True,False,,2,,,,False,120,LF-232,materials/cfd/Images/CFD/LF-232/CFD-LF-232-199-N.jpg,WM-037,materials/cfd/Images/CFD/WM-037/CFD-WM-037-060-A.jpg,m
1,1,55,study,1,male,White,female,Black,neutral,,,,,z,1579,True,False,,2,,,,False,122,WM-215,materials/cfd/Images/CFD/WM-215/CFD-WM-215-041-N.jpg,BF-045,materials/cfd/Images/CFD/BF-045/CFD-BF-045-003-N.jpg,z
1,1,56,study,1,male,Latino,female,Black,neutral,,,,,z,1562,True,False,,2,,,,False,124,LM-208,materials/cfd/Images/CFD/LM-208/CFD-LM-208-110-N.jpg,BF-206,materials/cfd/Images/CFD/BF-206/CFD-BF-206-143-N.jpg,z
1,1,57,study,1,male,Black,male,Black,neutral,,,,,z,1570,True,False,,2,,,,False,126,BM-005,materials/cfd/Images/CFD/BM-005/CFD-BM-005-003-N.jpg,BM-247,materials/cfd/Images/CFD/BM-247/CFD-BM-247-240-N.jpg,z
1,1,58,study,1,female,Black,male,Black,happy,,,,,m,896,True,False,,2,,,,False,128,BF-226,materials/cfd/Images/CFD/BF-226/CFD-BF-226-119-N.jpg,BM-002,materials/cfd/Images/CFD/BM-002/CFD-BM-002-007-HO.jpg,m
1,1,59,study,1,male,White,female,Black,angry,,,,,z,1018,True,False,,2,,,,False,130,WM-220,materials/cfd/Images/CFD/WM-220/CFD-WM-220-068-N.jpg,BF-028,materials/cfd/Images/CFD/BF-028/CFD-BF-028-021-A.jpg,z
1,1,60,study,1,male,Asian,male,White,angry,,,,,z,1142,True,False,,2,,,,False,132,AM-218,materials/cfd/Images/CFD/AM-218/CFD-AM-218-085-N.jpg,WM-025,materials/cfd/Images/CFD/WM-025/CFD-WM-025-008-A.jpg,z
1,1,61,study,1,male,Asian,female,Black,happy,,,,,z,785,True,False,,2,,,,False,134,AM-205,materials/cfd/Images/CFD/AM-205/CFD-AM-205-153-N.jpg,BF-050,materials/cfd/Images/CFD/BF-050/CFD-BF-050-004-HO.jpg,z
1,1,62,study,1,male,Asian,female,White,angry,,,,,z,730,True,False,,2,,,,False,136,AM-223,materials/cfd/Images/CFD/AM-223/CFD-AM-223-138-N.jpg,WF-018,materials/cfd/Images/CFD/WF-018/CFD-WF-018-012-A.jpg,z
1,1,63,study,1,female,Black,female,Black,neutral,,,,,m,928,True,False,,2,,,,False,138,BF-025,materials/cfd/Images/CFD/BF-025/CFD-BF-025-002-N.jpg,BF-231,materials/cfd/Images/CFD/BF-231/CFD-BF-231-202-N.jpg,m
1,1,64,study,1,female,White,male,Black,angry,,,,,m,1243,True,False,,2,,,,False,140,WF-202,materials/cfd/Images/CFD/WF-202/CFD-WF-202-056-N.jpg,BM-040,materials/cfd/Images/CFD/BM-040/CFD-BM-040-013-A.jpg,m
1,1,65,study,1,female,White,male,White,angry,,,,,m,985,True,False,,2,,,,False,142,WF-244,materials/cfd/Images/CFD/WF-244/CFD-WF-244-163-N.jpg,WM-034,materials/cfd/Images/CFD/WM-034/CFD-WM-034-040-A.jpg,m
1,1,66,study,1,female,White,female,White,happy,,,,,m,888,True,False,,2,,,,False,144,WF-247,materials/cfd/Images/CFD/WF-247/CFD-WF-247-065-N.jpg,WF-023,materials/cfd/Images/CFD/WF-023/CFD-WF-023-020-HO.jpg,m
1,1,67,study,1,female,White,male,White,neutral,,,,,m,787,True,False,,2,,,,False,146,WF-245,materials/cfd/Images/CFD/WF-245/CFD-WF-245-084-N.jpg,WM-032,materials/cfd/Images/CFD/WM-032/CFD-WM-032-001-N.jpg,m
1,1,68,study,1,male,Black,female,Black,happy,,,,,z,1186,True,False,,2,,,,False,148,BM-236,materials/cfd/Images/CFD/BM-236/CFD-BM-236-248-N.jpg,BF-010,materials/cfd/Images/CFD/BF-010/CFD-BF-010-003-HO.jpg,z
1,1,69,study,1,female,Asian,female,Black,angry,,,,,m,942,True,False,,2,,,,False,150,AF-248,materials/cfd/Images/CFD/AF-248/CFD-AF-248-148-N.jpg,BF-007,materials/cfd/Images/CFD/BF-007/CFD-BF-007-013-A.jpg,m
1,1,70,study,1,male,Latino,female,Black,neutral,,,,,z,1398,True,False,,2,,,,False,152,LM-247,materials/cfd/Images/CFD/LM-247/CFD-LM-247-095-N.jpg,BF-017,materials/cfd/Images/CFD/BF-017/CFD-BF-017-003-N.jpg,z
1,1,71,study,1,male,Asian,male,Black,neutral,,,,,z,1340,True,False,,2,,,,False,154,AM-245,materials/cfd/Images/CFD/AM-245/CFD-AM-245-111-N.jpg,BM-019,materials/cfd/Images/CFD/BM-019/CFD-BM-019-002-N.jpg,z
1,1,72,study,1,male,White,female,Black,happy,,,,,z,1232,True,False,,2,,,,False,156,WM-208,materials/cfd/Images/CFD/WM-208/CFD-WM-208-068-N.jpg,BF-042,materials/cfd/Images/CFD/BF-042/CFD-BF-042-028-HO.jpg,z
1,1,73,study,1,male,Latino,female,Black,angry,,,,,z,1395,True,False,,2,,,,False,158,LM-233,materials/cfd/Images/CFD/LM-233/CFD-LM-233-171-N.jpg,BF-019,materials/cfd/Images/CFD/BF-019/CFD-BF-019-023-A.jpg,z
1,1,74,study,1,female,Latino,female,White,neutral,,,,,m,924,True,False,,2,,,,False,160,LF-222,materials/cfd/Images/CFD/LF-222/CFD-LF-222-147-N.jpg,WF-203,materials/cfd/Images/CFD/WF-203/CFD-WF-203-229-N.jpg,m
1,1,75,study,1,female,White,female,White,angry,,,,,m,1484,True,False,,2,,,,False,162,WF-216,materials/cfd/Images/CFD/WF-216/CFD-WF-216-079-N.jpg,WF-027,materials/cfd/Images/CFD/WF-027/CFD-WF-027-014-A.jpg,m
1,1,76,study,1,female,White,male,Black,happy,,,,,m,1133,True,False,,2,,,,False,164,WF-205,materials/cfd/Images/CFD/WF-205/CFD-WF-205-006-N.jpg,BM-030,materials/cfd/Images/CFD/BM-030/CFD-BM-030-004-HO.jpg,m
1,1,77,study,1,female,White,male,White,happy,,,,,m,741,True,False,,2,,,,False,166,WF-236,materials/cfd/Images/CFD/WF-236/CFD-WF-236-107-N.jpg,WM-031,materials/cfd/Images/CFD/WM-031/CFD-WM-031-004-HO.jpg,m
1,1,78,study,1,male,Asian,female,Black,angry,,,,,z,949,True,False,,2,,,,False,168,AM-228,materials/cfd/Images/CFD/AM-228/CFD-AM-228-214-N.jpg,BF-024,materials/cfd/Images/CFD/BF-024/CFD-BF-024-024-A.jpg,z
1,1,79,study,1,female,Black,female,White,happy,,,,,m,1183,True,False,,2,,,,False,170,BF-210,materials/cfd/Images/CFD/BF-210/CFD-BF-210-130-N.jpg,WF-033,materials/cfd/Images/CFD/WF-033/CFD-WF-033-005-HO.jpg,m
1,1,80,study,1,male,Black,female,White,angry,,,,,z,1728,True,False,,2,,,,False,172,BM-231,materials/cfd/Images/CFD/BM-231/CFD-BM-231-155-N.jpg,WF-029,materials/cfd/Images/CFD/WF-029/CFD-WF-029-026-A.jpg,z
1,1,81,study,2,male,Black,male,White,neutral,,,,,z,1372,True,False,,2,,,,False,175,BM-221,materials/cfd/Images/CFD/BM-221/CFD-BM-221-198-N.jpg,WM-218,materials/cfd/Images/CFD/WM-218/CFD-WM-218-074-N.jpg,z
1,1,82,study,2,female,Latino,male,White,angry,,,,,m,985,True,False,,2,,,,False,177,LF-239,materials/cfd/Images/CFD/LF-239/CFD-LF-239-148-N.jpg,WM-004,materials/cfd/Images/CFD/WM-004/CFD-WM-004-011-A.jpg,m
1,1,83,study,2,male,White,male,White,angry,,,,,z,1093,True,False,,2,,,,False,179,WM-011,materials/cfd/Images/CFD/WM-011/CFD-WM-011-002-N.jpg,WM-023,materials/cfd/Images/CFD/WM-023/CFD-WM-023-012-A.jpg,z
1,1,84,study,2,female,Asian,female,White,angry,,,,,m,973,True,False,,2,,,,False,181,AF-231,materials/cfd/Images/CFD/AF-231/CFD-AF-231-357-N.jpg,WF-017,materials/cfd/Images/CFD/WF-017/CFD-WF-017-023-A.jpg,m
1,1,85,study,2,male,White,female,White,angry,,,,,z,1233,True,False,,2,,,,False,183,WM-209,materials/cfd/Images/CFD/WM-209/CFD-WM-209-038-N.jpg,WF-001,materials/cfd/Images/CFD/WF-001/CFD-WF-001-016-A.jpg,z
1,1,86,study,2,female,Latino,female,Black,angry,,,,,m,1047,True,False,,2,,,,False,185,LF-203,materials/cfd/Images/CFD/LF-203/CFD-LF-203-066-N.jpg,BF-032,materials/cfd/Images/CFD/BF-032/CFD-BF-032-017-A.jpg,m
1,1,87,study,2,male,White,male,Black,happy,,,,,z,997,True,False,,2,,,,False,187,WM-200,materials/cfd/Images/CFD/WM-200/CFD-WM-200-034-N.jpg,BM-039,materials/cfd/Images/CFD/BM-039/CFD-BM-039-034-HO.jpg,z
1,1,88,study,2,female,Asian,female,White,angry,,,,,m,948,True,False,,2,,,,False,189,AF-213,materials/cfd/Images/CFD/AF-213/CFD-AF-213-126-N.jpg,WF-031,materials/cfd/Images/CFD/WF-031/CFD-WF-031-015-A.jpg,m
1,1,89,study,2,male,White,male,Black,angry,,,,,z,1207,True,False,,2,,,,False,191,WM-234,materials/cfd/Images/CFD/WM-234/CFD-WM-234-118-N.jpg,BM-041,materials/cfd/Images/CFD/BM-041/CFD-BM-041-048-A.jpg,z
1,1,90,study,2,female,Asian,female,White,happy,,,,,m,903,True,False,,2,,,,False,193,AF-244,materials/cfd/Images/CFD/AF-244/CFD-AF-244-168-N.jpg,WF-020,materials/cfd/Images/CFD/WF-020/CFD-WF-020-023-HO.jpg,m
1,1,91,study,2,female,Asian,male,Black,neutral,,,,,m,1158,True,False,,2,,,,False,195,AF-209,materials/cfd/Images/CFD/AF-209/CFD-AF-209-006-N.jpg,BM-226,materials/cfd/Images/CFD/BM-226/CFD-BM-226-276-N.jpg,m
1,1,92,study,2,male,White,male,Black,neutral,,,,,z,1266,True,False,,2,,,,False,197,WM-250,materials/cfd/Images/CFD/WM-250/CFD-WM-250-157-N.jpg,BM-215,materials/cfd/Images/CFD/BM-215/CFD-BM-215-155-N.jpg,z
1,1,93,study,2,female,Asian,female,Black,happy,,,,,m,974,True,False,,2,,,,False,199,AF-246,materials/cfd/Images/CFD/AF-246/CFD-AF-246-242-N.jpg,BF-012,materials/cfd/Images/CFD/BF-012/CFD-BF-012-019-HO.jpg,m
1,1,94,study,2,male,White,female,White,happy,,,,,z,1226,True,False,,2,,,,False,201,WM-003,materials/cfd/Images/CFD/WM-003/CFD-WM-003-002-N.jpg,WF-014,materials/cfd/Images/CFD/WF-014/CFD-WF-014-004-HO.jpg,z
1,1,95,study,2,male,Latino,male,White,happy,,,,,z,1705,True,False,,2,,,,False,203,LM-239,materials/cfd/Images/CFD/LM-239/CFD-LM-239-075-N.jpg,WM-022,materials/cfd/Images/CFD/WM-022/CFD-WM-022-005-HO.jpg,z
1,1,96,study,2,male,Black,male,Black,happy,,,,,z,1404,True,False,,2,,,,False,205,BM-026,materials/cfd/Images/CFD/BM-026/CFD-BM-026-002-N.jpg,BM-024,materials/cfd/Images/CFD/BM-024/CFD-BM-024-061-HO.jpg,z
1,1,97,study,2,female,White,male,Black,angry,,,,,m,910,True,False,,2,,,,False,207,WF-204,materials/cfd/Images/CFD/WF-204/CFD-WF-204-038-N.jpg,BM-021,materials/cfd/Images/CFD/BM-021/CFD-BM-021-026-A.jpg,m
1,1,98,study,2,female,Latino,female,White,happy,,,,,m,1273,True,False,,2,,,,False,209,LF-216,materials/cfd/Images/CFD/LF-216/CFD-LF-216-121-N.jpg,WF-038,materials/cfd/Images/CFD/WF-038/CFD-WF-038-023-HO.jpg,m
1,1,99,study,2,female,Black,male,White,angry,,,,,m,1475,True,False,,2,,,,False,211,BF-004,materials/cfd/Images/CFD/BF-004/CFD-BF-004-014-N.jpg,WM-041,materials/cfd/Images/CFD/WM-041/CFD-WM-041-009-A.jpg,m
1,1,100,study,2,male,Latino,male,White,happy,,,,,z,1042,True,False,,2,,,,False,213,LM-201,materials/cfd/Images/CFD/LM-201/CFD-LM-201-057-N.jpg,WM-010,materials/cfd/Images/CFD/WM-010/CFD-WM-010-004-HO.jpg,z
1,1,101,study,2,female,White,male,White,angry,,,,,m,775,True,False,,2,,,,False,215,WF-243,materials/cfd/Images/CFD/WF-243/CFD-WF-243-148-N.jpg,WM-035,materials/cfd/Images/CFD/WM-035/CFD-WM-035-018-A.jpg,m
1,1,102,study,2,female,Latino,female,White,neutral,,,,,m,1111,True,False,,2,,,,False,217,LF-219,materials/cfd/Images/CFD/LF-219/CFD-LF-219-223-N.jpg,WF-225,materials/cfd/Images/CFD/WF-225/CFD-WF-225-101-N.jpg,m
1,1,103,study,2,male,Black,male,Black,happy,,,,,z,1075,True,False,,2,,,,False,219,BM-010,materials/cfd/Images/CFD/BM-010/CFD-BM-010-003-N.jpg,BM-022,materials/cfd/Images/CFD/BM-022/CFD-BM-022-027-HO.jpg,z
1,1,104,study,2,female,White,male,White,happy,,,,,m,1336,True,False,,2,,,,False,221,WF-006,materials/cfd/Images/CFD/WF-006/CFD-WF-006-002-N.jpg,WM-006,materials/cfd/Images/CFD/WM-006/CFD-WM-006-010-HO.jpg,m
1,1,105,study,2,male,White,male,Black,angry,,,,,z,1381,True,False,,2,,,,False,223,WM-217,materials/cfd/Images/CFD/WM-217/CFD-WM-217-070-N.jpg,BM-016,materials/cfd/Images/CFD/BM-016/CFD-BM-016-042-A.jpg,z
1,1,106,study,2,male,White,male,Black,angry,,,,,z,1481,True,False,,2,,,,False,225,WM-221,materials/cfd/Images/CFD/WM-221/CFD-WM-221-091-N.jpg,BM-003,materials/cfd/Images/CFD/BM-003/CFD-BM-003-030-A.jpg,z
1,1,107,study,2,female,White,female,White,angry,,,,,m,2103,True,False,,2,,,,False,227,WF-002,materials/cfd/Images/CFD/WF-002/CFD-WF-002-004-N.jpg,WF-009,materials/cfd/Images/CFD/WF-009/CFD-WF-009-010-A.jpg,m
1,1,108,study,2,female,Black,female,Black,neutral,,,,,m,886,True,False,,2,,,,False,229,BF-023,materials/cfd/Images/CFD/BF-023/CFD-BF-023-010-N.jpg,BF-212,materials/cfd/Images/CFD/BF-212/CFD-BF-212-315-N.jpg,m
1,1,109,study,2,female,Latino,male,White,neutral,,,,,m,793,True,False,,2,,,,False,231,LF-246,materials/cfd/Images/CFD/LF-246/CFD-LF-246-129-N.jpg,WM-021,materials/cfd/Images/CFD/WM-021/CFD-WM-021-001-N.jpg,m
1,1,110,study,2,male,Latino,male,Black,neutral,,,,,z,1567,True,False,,2,,,,False,233,LM-215,materials/cfd/Images/CFD/LM-215/CFD-LM-215-247-N.jpg,BM-233,materials/cfd/Images/CFD/BM-233/CFD-BM-233-285-N.jpg,z
1,1,111,study,2,female,Asian,male,Black,angry,,,,,m,2187,True,False,,2,,,,False,235,AF-229,materials/cfd/Images/CFD/AF-229/CFD-AF-229-160-N.jpg,BM-046,materials/cfd/Images/CFD/BM-046/CFD-BM-046-048-A.jpg,m
1,1,112,study,2,male,Latino,male,Black,neutral,,,,,z,854,True,False,,2,,,,False,237,LM-217,materials/cfd/Images/CFD/LM-217/CFD-LM-217-162-N.jpg,BM-032,materials/cfd/Images/CFD/BM-032/CFD-BM-032-024-N.jpg,z
1,1,113,study,2,male,Latino,female,Black,neutral,,,,,z,1295,True,False,,2,,,,False,239,LM-228,materials/cfd/Images/CFD/LM-228/CFD-LM-228-188-N.jpg,BF-236,materials/cfd/Images/CFD/BF-236/CFD-BF-236-177-N.jpg,z
1,1,114,study,2,male,Asian,female,Black,happy,,,,,z,1311,True,False,,2,,,,False,241,AM-220,materials/cfd/Images/CFD/AM-220/CFD-AM-220-134-N.jpg,BF-041,materials/cfd/Images/CFD/BF-041/CFD-BF-041-004-HO.jpg,z
1,1,115,study,2,male,Asian,male,Black,happy,,,,,z,1479,True,False,,2,,,,False,243,AM-231,materials/cfd/Images/CFD/AM-231/CFD-AM-231-136-N.jpg,BM-037,materials/cfd/Images/CFD/BM-037/CFD-BM-037-036-HO.jpg,z
1,1,116,study,2,female,Latino,female,White,angry,,,,,m,1060,True,False,,2,,,,False,245,LF-226,materials/cfd/Images/CFD/LF-226/CFD-LF-226-174-N.jpg,WF-012,materials/cfd/Images/CFD/WF-012/CFD-WF-012-012-A.jpg,m
1,1,117,study,2,female,White,female,White,neutral,,,,,m,879,True,False,,2,,,,False,247,WF-003,materials/cfd/Images/CFD/WF-003/CFD-WF-003-003-N.jpg,WF-008,materials/cfd/Images/CFD/WF-008/CFD-WF-008-002-N.jpg,m
1,1,118,study,2,female,Latino,male,White,neutral,,,,,m,902,True,False,,2,,,,False,249,LF-208,materials/cfd/Images/CFD/LF-208/CFD-LF-208-127-N.jpg,WM-241,materials/cfd/Images/CFD/WM-241/CFD-WM-241-072-N.jpg,m
1,1,119,study,2,female,Black,male,Black,happy,,,,,m,710,True,False,,2,,,,False,251,BF-240,materials/cfd/Images/CFD/BF-240/CFD-BF-240-179-N.jpg,BM-028,materials/cfd/Images/CFD/BM-028/CFD-BM-028-028-HO.jpg,m
1,1,120,study,2,female,Black,male,White,happy,,,,,m,812,True,False,,2,,,,False,253,BF-208,materials/cfd/Images/CFD/BF-208/CFD-BF-208-266-N.jpg,WM-033,materials/cfd/Images/CFD/WM-033/CFD-WM-033-007-HO.jpg,m
1,1,121,test,0,male,White,,,,new,,,,z,1515,True,False,,2,,,,False,266,WM-238,materials/cfd/Images/CFD/WM-238/CFD-WM-238-020-N.jpg,,,z
1,1,122,test,0,female,White,,,,new,,,,z,1365,True,False,,2,,,,False,268,WF-226,materials/cfd/Images/CFD/WF-226/CFD-WF-226-095-N.jpg,,,z
1,1,123,test,0,female,Black,,,,new,,,,z,1236,True,False,,2,,,,False,270,BF-235,materials/cfd/Images/CFD/BF-235/CFD-BF-235-168-N.jpg,,,z
1,1,124,test,0,female,White,,,,old,happy,male,,m,702,True,False,,2,,,,False,272,WF-236,materials/cfd/Images/CFD/WF-236/CFD-WF-236-107-N.jpg,,,m
1,1,125,test,0,male,Asian,,,,old,angry,female,,m,709,True,False,,2,,,,False,274,AM-223,materials/cfd/Images/CFD/AM-223/CFD-AM-223-138-N.jpg,,,m
1,1,126,test,0,male,Black,,,,old,angry,female,,m,726,True,False,,2,,,,False,276,BM-231,materials/cfd/Images/CFD/BM-231/CFD-BM-231-155-N.jpg,,,m
1,1,127,test,0,male,Latino,,,,old,neutral,female,,m,1129,True,False,,2,,,,False,278,LM-247,materials/cfd/Images/CFD/LM-247/CFD-LM-247-095-N.jpg,,,m
1,1,128,test,0,female,Asian,,,,old,neutral,female,,z,1132,False,False,,2,,,,False,280,AF-232,materials/cfd/Images/CFD/AF-232/CFD-AF-232-078-N.jpg,,,m
1,1,129,test,0,female,White,,,,new,,,,z,1211,True,False,,2,,,,False,282,WF-210,materials/cfd/Images/CFD/WF-210/CFD-WF-210-086-N.jpg,,,z
1,1,130,test,0,female,White,,,,old,happy,female,,m,965,True,False,,2,,,,False,284,WF-247,materials/cfd/Images/CFD/WF-247/CFD-WF-247-065-N.jpg,,,m
1,1,131,test,0,female,Black,,,,old,neutral,female,,m,973,True,False,,2,,,,False,286,BF-242,materials/cfd/Images/CFD/BF-242/CFD-BF-242-154-N.jpg,,,m
1,1,132,test,0,female,Latino,,,,old,angry,female,,m,892,True,False,,2,,,,False,288,LF-226,materials/cfd/Images/CFD/LF-226/CFD-LF-226-174-N.jpg,,,m
1,1,133,test,0,female,Black,,,,new,,,,z,1446,True,False,,2,,,,False,290,BF-213,materials/cfd/Images/CFD/BF-213/CFD-BF-213-188-N.jpg,,,z
1,1,134,test,0,female,Black,,,,new,,,,z,1517,True,False,,2,,,,False,292,BF-027,materials/cfd/Images/CFD/BF-027/CFD-BF-027-002-N.jpg,,,z
1,1,135,test,0,female,Latino,,,,new,,,,m,1307,False,False,,2,,,,False,294,LF-252,materials/cfd/Images/CFD/LF-252/CFD-LF-252-172-N.jpg,,,z
1,1,136,test,0,male,White,,,,new,,,,z,1990,True,False,,2,,,,False,296,WM-222,materials/cfd/Images/CFD/WM-222/CFD-WM-222-057-N.jpg,,,z
1,1,137,test,0,male,White,,,,old,neutral,male,,m,1174,True,False,,2,,,,False,298,WM-211,materials/cfd/Images/CFD/WM-211/CFD-WM-211-054-N.jpg,,,m
1,1,138,test,0,male,Black,,,,old,happy,female,,z,1064,False,False,,2,,,,False,300,BM-241,materials/cfd/Images/CFD/BM-241/CFD-BM-241-235-N.jpg,,,m
1,1,139,test,0,female,Asian,,,,new,,,,m,871,False,False,,2,,,,False,302,AF-228,materials/cfd/Images/CFD/AF-228/CFD-AF-228-173-N.jpg,,,z
1,1,140,test,0,female,Latino,,,,old,happy,female,,m,958,True,False,,2,,,,False,304,LF-251,materials/cfd/Images/CFD/LF-251/CFD-LF-251-057-N.jpg,,,m
1,1,141,test,0,female,Asian,,,,new,,,,m,1279,False,False,,2,,,,False,306,AF-219,materials/cfd/Images/CFD/AF-219/CFD-AF-219-106-N.jpg,,,z
1,1,142,test,0,male,Asian,,,,old,angry,male,,m,1061,True,False,,2,,,,False,308,AM-212,materials/cfd/Images/CFD/AM-212/CFD-AM-212-050-N.jpg,,,m
1,1,143,test,0,female,White,,,,old,angry,male,,m,723,True,False,,2,,,,False,310,WF-243,materials/cfd/Images/CFD/WF-243/CFD-WF-243-148-N.jpg,,,m
1,1,144,test,0,male,Latino,,,,old,happy,female,,m,1593,True,False,,2,,,,False,312,LM-249,materials/cfd/Images/CFD/LM-249/CFD-LM-249-001-N.jpg,,,m
1,1,145,test,0,male,Black,,,,new,,,,m,985,False,False,,2,,,,False,314,BM-222,materials/cfd/Images/CFD/BM-222/CFD-BM-222-173-N.jpg,,,z
1,1,146,test,0,male,Latino,,,,new,,,,z,965,True,False,,2,,,,False,316,LM-222,materials/cfd/Images/CFD/LM-222/CFD-LM-222-239-N.jpg,,,z
1,1,147,test,0,female,White,,,,old,happy,male,,m,998,True,False,,2,,,,False,318,WF-005,materials/cfd/Images/CFD/WF-005/CFD-WF-005-010-N.jpg,,,m
1,1,148,test,0,male,Latino,,,,new,,,,z,981,True,False,,2,,,,False,320,LM-207,materials/cfd/Images/CFD/LM-207/CFD-LM-207-004-N.jpg,,,z
1,1,149,test,0,female,Asian,,,,new,,,,z,1511,True,False,,2,,,,False,322,AF-239,materials/cfd/Images/CFD/AF-239/CFD-AF-239-171-N.jpg,,,z
1,1,150,test,0,male,Black,,,,new,,,,m,967,False,False,,2,,,,False,324,BM-214,materials/cfd/Images/CFD/BM-214/CFD-BM-214-075-N.jpg,,,z
1,1,151,test,0,male,Black,,,,old,neutral,male,,m,807,True,False,,2,,,,False,326,BM-221,materials/cfd/Images/CFD/BM-221/CFD-BM-221-198-N.jpg,,,m
1,1,152,test,0,female,White,,,,new,,,,m,840,False,False,,2,,,,False,328,WF-035,materials/cfd/Images/CFD/WF-035/CFD-WF-035-024-N.jpg,,,z
1,1,153,test,0,female,Latino,,,,new,,,,z,1091,True,False,,2,,,,False,330,LF-214,materials/cfd/Images/CFD/LF-214/CFD-LF-214-090-N.jpg,,,z
1,1,154,test,0,male,White,,,,old,neutral,female,,m,1047,True,False,,2,,,,False,332,WM-212,materials/cfd/Images/CFD/WM-212/CFD-WM-212-097-N.jpg,,,m
1,1,155,test,0,male,Asian,,,,old,happy,female,,m,921,True,False,,2,,,,False,334,AM-220,materials/cfd/Images/CFD/AM-220/CFD-AM-220-134-N.jpg,,,m
1,1,156,test,0,male,Black,,,,new,,,,m,1382,False,False,,2,,,,False,336,BM-025,materials/cfd/Images/CFD/BM-025/CFD-BM-025-035-N.jpg,,,z
1,1,157,test,0,female,Asian,,,,old,angry,female,,z,1504,False,False,,2,,,,False,338,AF-252,materials/cfd/Images/CFD/AF-252/CFD-AF-252-135-N.jpg,,,m
1,1,158,test,0,female,Black,,,,old,angry,male,,m,944,True,False,,2,,,,False,340,BF-004,materials/cfd/Images/CFD/BF-004/CFD-BF-004-014-N.jpg,,,m
1,1,159,test,0,female,White,,,,old,angry,female,,z,1322,False,False,,2,,,,False,342,WF-223,materials/cfd/Images/CFD/WF-223/CFD-WF-223-133-N.jpg,,,m
1,1,160,test,0,female,White,,,,new,,,,z,1276,True,False,,2,,,,False,344,WF-201,materials/cfd/Images/CFD/WF-201/CFD-WF-201-156-N.jpg,,,z
1,1,161,test,1,female,Black,,,,old,neutral,male,,m,1156,True,False,,2,,,,False,347,BF-020,materials/cfd/Images/CFD/BF-020/CFD-BF-020-002-N.jpg,,,m
1,1,162,test,1,female,Latino,,,,old,neutral,male,,z,1022,False,False,,2,,,,False,349,LF-208,materials/cfd/Images/CFD/LF-208/CFD-LF-208-127-N.jpg,,,m
1,1,163,test,1,female,Black,,,,old,happy,female,,m,645,True,False,,2,,,,False,351,BF-210,materials/cfd/Images/CFD/BF-210/CFD-BF-210-130-N.jpg,,,m
1,1,164,test,1,female,White,,,,new,,,,m,1001,False,False,,2,,,,False,353,WF-211,materials/cfd/Images/CFD/WF-211/CFD-WF-211-001-N.jpg,,,z
1,1,165,test,1,male,Asian,,,,new,,,,z,1361,True,False,,2,,,,False,355,AM-234,materials/cfd/Images/CFD/AM-234/CFD-AM-234-355-N.jpg,,,z
1,1,166,test,1,female,Black,,,,new,,,,z,1279,True,False,,2,,,,False,357,BF-013,materials/cfd/Images/CFD/BF-013/CFD-BF-013-001-N.jpg,,,z
1,1,167,test,1,female,White,,,,old,happy,female,,z,1243,False,False,,2,,,,False,359,WF-237,materials/cfd/Images/CFD/WF-237/CFD-WF-237-067-N.jpg,,,m
1,1,168,test,1,female,Latino,,,,old,neutral,female,,z,1165,False,False,,2,,,,False,361,LF-221,materials/cfd/Images/CFD/LF-221/CFD-LF-221-002-N.jpg,,,m
1,1,169,test,1,female,Latino,,,,old,neutral,female,,z,1088,False,False,,2,,,,False,363,LF-222,materials/cfd/Images/CFD/LF-222/CFD-LF-222-147-N.jpg,,,m
1,1,170,test,1,female,Black,,,,old,neutral,male,,m,944,True,False,,2,,,,False,365,BF-255,materials/cfd/Images/CFD/BF-255/CFD-BF-255-140-N.jpg,,,m
1,1,171,test,1,male,Black,,,,new,,,,z,1063,True,False,,2,,,,False,367,BM-248,materials/cfd/Images/CFD/BM-248/CFD-BM-248-128-N.jpg,,,z
1,1,172,test,1,male,White,,,,old,angry,male,,m,1022,True,False,,2,,,,False,369,WM-234,materials/cfd/Images/CFD/WM-234/CFD-WM-234-118-N.jpg,,,m
1,1,173,test,1,male,Latino,,,,new,,,,z,981,True,False,,2,,,,False,371,LM-250,materials/cfd/Images/CFD/LM-250/CFD-LM-250-077-N.jpg,,,z
1,1,174,test,1,male,White,,,,old,angry,male,,z,963,False,False,,2,,,,False,373,WM-221,materials/cfd/Images/CFD/WM-221/CFD-WM-221-091-N.jpg,,,m
1,1,175,test,1,female,White,,,,new,,,,m,1346,False,False,,2,,,,False,375,WF-219,materials/cfd/Images/CFD/WF-219/CFD-WF-219-038-N.jpg,,,z
1,1,176,test,1,female,White,,,,new,,,,z,1518,True,False,,2,,,,False,377,WF-039,materials/cfd/Images/CFD/WF-039/CFD-WF-039-025-N.jpg,,,z
1,1,177,test,1,female,White,,,,new,,,,m,1330,False,False,,2,,,,False,379,WF-025,materials/cfd/Images/CFD/WF-025/CFD-WF-025-019-N.jpg,,,z
1,1,178,test,1,male,White,,,,new,,,,z,1628,True,False,,2,,,,False,381,WM-254,materials/cfd/Images/CFD/WM-254/CFD-WM-254-152-N.jpg,,,z
1,1,179,test,1,female,Asian,,,,new,,,,m,1061,False,False,,2,,,,False,383,AF-238,materials/cfd/Images/CFD/AF-238/CFD-AF-238-185-N.jpg,,,z
1,1,180,test,1,female,Black,,,,new,,,,m,972,False,False,,2,,,,False,385,BF-204,materials/cfd/Images/CFD/BF-204/CFD-BF-204-189-N.jpg,,,z
1,1,181,test,1,male,Latino,,,,old,happy,male,,m,1079,True,False,,2,,,,False,387,LM-201,materials/cfd/Images/CFD/LM-201/CFD-LM-201-057-N.jpg,,,m
1,1,182,test,1,female,Black,,,,new,,,,m,1159,False,False,,2,,,,False,389,BF-222,materials/cfd/Images/CFD/BF-222/CFD-BF-222-240-N.jpg,,,z
1,1,183,test,1,male,White,,,,old,neutral,female,,z,1228,False,False,,2,,,,False,391,WM-215,materials/cfd/Images/CFD/WM-215/CFD-WM-215-041-N.jpg,,,m
1,1,184,test,1,male,White,,,,new,,,,z,1385,True,False,,2,,,,False,393,WM-205,materials/cfd/Images/CFD/WM-205/CFD-WM-205-007-N.jpg,,,z
1,1,185,test,1,female,Black,,,,old,happy,male,,z,1305,False,False,,2,,,,False,395,BF-208,materials/cfd/Images/CFD/BF-208/CFD-BF-208-266-N.jpg,,,m
1,1,186,test,1,male,Latino,,,,old,happy,male,,m,1152,True,False,,2,,,,False,397,LM-209,materials/cfd/Images/CFD/LM-209/CFD-LM-209-111-N.jpg,,,m
1,1,187,test,1,female,Latino,,,,new,,,,z,1711,True,False,,2,,,,False,399,LF-227,materials/cfd/Images/CFD/LF-227/CFD-LF-227-054-N.jpg,,,z
1,1,188,test,1,male,Latino,,,,new,,,,z,1399,True,False,,2,,,,False,401,LM-235,materials/cfd/Images/CFD/LM-235/CFD-LM-235-231-N.jpg,,,z
1,1,189,test,1,male,Latino,,,,new,,,,m,1273,False,False,,2,,,,False,403,LM-227,materials/cfd/Images/CFD/LM-227/CFD-LM-227-103-N.jpg,,,z
1,1,190,test,1,female,Black,,,,old,happy,female,,m,1054,True,False,,2,,,,False,405,BF-009,materials/cfd/Images/CFD/BF-009/CFD-BF-009-002-N.jpg,,,m
1,1,191,test,1,male,Black,,,,old,happy,male,,m,918,True,False,,2,,,,False,407,BM-240,materials/cfd/Images/CFD/BM-240/CFD-BM-240-207-N.jpg,,,m
1,1,192,test,1,male,White,,,,old,neutral,male,,z,868,False,False,,2,,,,False,409,WM-250,materials/cfd/Images/CFD/WM-250/CFD-WM-250-157-N.jpg,,,m
1,1,193,test,1,male,White,,,,old,angry,male,,m,1025,True,False,,2,,,,False,411,WM-217,materials/cfd/Images/CFD/WM-217/CFD-WM-217-070-N.jpg,,,m
1,1,194,test,1,male,Latino,,,,new,,,,z,900,True,False,,2,,,,False,413,LM-236,materials/cfd/Images/CFD/LM-236/CFD-LM-236-163-N.jpg,,,z
1,1,195,test,1,female,Latino,,,,old,happy,male,,z,1253,False,False,,2,,,,False,415,LF-244,materials/cfd/Images/CFD/LF-244/CFD-LF-244-096-N.jpg,,,m
1,1,196,test,1,male,White,,,,new,,,,z,1595,True,False,,2,,,,False,417,WM-248,materials/cfd/Images/CFD/WM-248/CFD-WM-248-036-N.jpg,,,z
1,1,197,test,1,female,White,,,,old,happy,male,,m,1161,True,False,,2,,,,False,419,WF-006,materials/cfd/Images/CFD/WF-006/CFD-WF-006-002-N.jpg,,,m
1,1,198,test,1,female,Asian,,,,old,angry,male,,z,1564,False,False,,2,,,,False,421,AF-212,materials/cfd/Images/CFD/AF-212/CFD-AF-212-097-N.jpg,,,m
1,1,199,test,1,male,Asian,,,,new,,,,z,930,True,False,,2,,,,False,423,AM-229,materials/cfd/Images/CFD/AM-229/CFD-AM-229-224-N.jpg,,,z
1,1,200,test,1,female,Asian,,,,old,angry,male,,z,1037,False,False,,2,,,,False,425,AF-229,materials/cfd/Images/CFD/AF-229/CFD-AF-229-160-N.jpg,,,m
1,1,201,test,2,female,Asian,,,,new,,,,m,1174,False,False,,2,,,,False,428,AF-242,materials/cfd/Images/CFD/AF-242/CFD-AF-242-158-N.jpg,,,z
1,1,202,test,2,female,Asian,,,,new,,,,z,1242,True,False,,2,,,,False,430,AF-230,materials/cfd/Images/CFD/AF-230/CFD-AF-230-193-N.jpg,,,z
1,1,203,test,2,male,Black,,,,old,angry,female,,z,1180,False,False,,2,,,,False,432,BM-218,materials/cfd/Images/CFD/BM-218/CFD-BM-218-132-N.jpg,,,m
1,1,204,test,2,male,White,,,,old,neutral,male,,m,1001,True,False,,2,,,,False,434,WM-020,materials/cfd/Images/CFD/WM-020/CFD-WM-020-001-N.jpg,,,m
1,1,205,test,2,female,Latino,,,,old,neutral,male,,m,1298,True,False,,2,,,,False,436,LF-246,materials/cfd/Images/CFD/LF-246/CFD-LF-246-129-N.jpg,,,m
1,1,206,test,2,female,Latino,,,,old,angry,male,,z,1378,False,False,,2,,,,False,438,LF-232,materials/cfd/Images/CFD/LF-232/CFD-LF-232-199-N.jpg,,,m
1,1,207,test,2,female,Latino,,,,old,neutral,female,,z,857,False,False,,2,,,,False,440,LF-219,materials/cfd/Images/CFD/LF-219/CFD-LF-219-223-N.jpg,,,m
1,1,208,test,2,female,Asian,,,,new,,,,z,1194,True,False,,2,,,,False,442,AF-233,materials/cfd/Images/CFD/AF-233/CFD-AF-233-190-N.jpg,,,z
1,1,209,test,2,female,Asian,,,,old,neutral,male,,z,1051,False,False,,2,,,,False,444,AF-215,materials/cfd/Images/CFD/AF-215/CFD-AF-215-70-N.jpg,,,m
1,1,210,test,2,male,Latino,,,,new,,,,z,1112,True,False,,2,,,,False,446,LM-229,materials/cfd/Images/CFD/LM-229/CFD-LM-229-187-N.jpg,,,z
1,1,211,test,2,male,Asian,,,,new,,,,z,1097,True,False,,2,,,,False,448,AM-207,materials/cfd/Images/CFD/AM-207/CFD-AM-207-108-N.jpg,,,z
1,1,212,test,2,female,White,,,,old,angry,female,,m,721,True,False,,2,,,,False,450,WF-002,materials/cfd/Images/CFD/WF-002/CFD-WF-002-004-N.jpg,,,m
1,1,213,test,2,male,Black,,,,old,neutral,female,,m,951,True,False,,2,,,,False,452,BM-044,materials/cfd/Images/CFD/BM-044/CFD-BM-044-001-N.jpg,,,m
1,1,214,test,2,male,White,,,,old,neutral,female,,z,1023,False,False,,2,,,,False,454,WM-213,materials/cfd/Images/CFD/WM-213/CFD-WM-213-076-N.jpg,,,m
1,1,215,test,2,female,Asian,,,,old,angry,female,,m,797,True,False,,2,,,,False,456,AF-231,materials/cfd/Images/CFD/AF-231/CFD-AF-231-357-N.jpg,,,m
1,1,216,test,2,female,Latino,,,,old,angry,male,,m,890,True,False,,2,,,,False,458,LF-210,materials/cfd/Images/CFD/LF-210/CFD-LF-210-220-N.jpg,,,m
1,1,217,test,2,male,White,,,,old,happy,female,,z,1023,False,False,,2,,,,False,460,WM-208,materials/cfd/Images/CFD/WM-208/CFD-WM-208-068-N.jpg,,,m
1,1,218,test,2,male,Black,,,,old,happy,female,,m,844,True,False,,2,,,,False,462,BM-011,materials/cfd/Images/CFD/BM-011/CFD-BM-011-016-N.jpg,,,m
1,1,219,test,2,female,Black,,,,new,,,,m,1002,False,False,,2,,,,False,464,BF-029,materials/cfd/Images/CFD/BF-029/CFD-BF-029-031-N.jpg,,,z
1,1,220,test,2,female,Asian,,,,old,happy,female,,m,974,True,False,,2,,,,False,466,AF-244,materials/cfd/Images/CFD/AF-244/CFD-AF-244-168-N.jpg,,,m
1,1,221,test,2,male,White,,,,new,,,,z,847,True,False,,2,,,,False,468,WM-219,materials/cfd/Images/CFD/WM-219/CFD-WM-219-008-N.jpg,,,z
1,1,222,test,2,male,Black,,,,old,happy,female,,m,1178,True,False,,2,,,,False,470,BM-004,materials/cfd/Images/CFD/BM-004/CFD-BM-004-002-N.jpg,,,m
1,1,223,test,2,female,Black,,,,old,neutral,male,,z,1040,False,False,,2,,,,False,472,BF-003,materials/cfd/Images/CFD/BF-003/CFD-BF-003-003-N.jpg,,,m
1,1,224,test,2,female,White,,,,new,,,,z,1108,True,False,,2,,,,False,474,WF-232,materials/cfd/Images/CFD/WF-232/CFD-WF-232-161-N.jpg,,,z
1,1,225,test,2,male,Latino,,,,old,neutral,male,,z,901,False,False,,2,,,,False,476,LM-217,materials/cfd/Images/CFD/LM-217/CFD-LM-217-162-N.jpg,,,m
1,1,226,test,2,male,White,,,,new,,,,z,1133,True,False,,2,,,,False,478,WM-202,materials/cfd/Images/CFD/WM-202/CFD-WM-202-107-N.jpg,,,z
1,1,227,test,2,male,Latino,,,,new,,,,m,1522,False,False,,2,,,,False,480,LM-204,materials/cfd/Images/CFD/LM-204/CFD-LM-204-001-N.jpg,,,z
1,1,228,test,2,female,Black,,,,new,,,,z,1700,True,False,,2,,,,False,482,BF-015,materials/cfd/Images/CFD/BF-015/CFD-BF-015-004-N.jpg,,,z
1,1,229,test,2,male,Asian,,,,new,,,,z,890,True,False,,2,,,,False,484,AM-213,materials/cfd/Images/CFD/AM-213/CFD-AM-213-056-N.jpg,,,z
1,1,230,test,2,female,Black,,,,old,neutral,male,,z,1802,False,False,,2,,,,False,486,BF-048,materials/cfd/Images/CFD/BF-048/CFD-BF-048-002-N.jpg,,,m
1,1,231,test,2,female,Black,,,,old,angry,female,,z,1630,False,False,,2,,,,False,488,BF-246,materials/cfd/Images/CFD/BF-246/CFD-BF-246-170-N.jpg,,,m
1,1,232,test,2,male,Asian,,,,new,,,,z,902,True,False,,2,,,,False,490,AM-244,materials/cfd/Images/CFD/AM-244/CFD-AM-244-222-N.jpg,,,z
1,1,233,test,2,female,Latino,,,,old,angry,male,,m,868,True,False,,2,,,,False,492,LF-239,materials/cfd/Images/CFD/LF-239/CFD-LF-239-148-N.jpg,,,m
1,1,234,test,2,female,White,,,,new,,,,m,842,False,False,,2,,,,False,494,WF-230,materials/cfd/Images/CFD/WF-230/CFD-WF-230-158-N.jpg,,,z
1,1,235,test,2,female,Black,,,,old,neutral,female,,z,1423,False,False,,2,,,,False,496,BF-230,materials/cfd/Images/CFD/BF-230/CFD-BF-230-189-N.jpg,,,m
1,1,236,test,2,male,Asian,,,,new,,,,z,1535,True,False,,2,,,,False,498,AM-221,materials/cfd/Images/CFD/AM-221/CFD-AM-221-184-N.jpg,,,z
1,1,237,test,2,male,Latino,,,,old,neutral,male,,z,981,False,False,,2,,,,False,500,LM-215,materials/cfd/Images/CFD/LM-215/CFD-LM-215-247-N.jpg,,,m
1,1,238,test,2,female,Black,,,,new,,,,z,1188,True,False,,2,,,,False,502,BF-228,materials/cfd/Images/CFD/BF-228/CFD-BF-228-212-N.jpg,,,z
1,1,239,test,2,male,Asian,,,,new,,,,z,1015,True,False,,2,,,,False,504,AM-227,materials/cfd/Images/CFD/AM-227/CFD-AM-227-184-N.jpg,,,z
1,1,240,test,2,male,Black,,,,new,,,,m,1093,False,False,,2,,,,False,506,BM-235,materials/cfd/Images/CFD/BM-235/CFD-BM-235-226-N.jpg,,,z
1,1,241,test,3,female,White,,,,old,neutral,female,,z,1682,False,False,,2,,,,False,509,WF-003,materials/cfd/Images/CFD/WF-003/CFD-WF-003-003-N.jpg,,,m
1,1,242,test,3,male,Black,,,,new,,,,z,945,True,False,,2,,,,False,511,BM-251,materials/cfd/Images/CFD/BM-251/CFD-BM-251-013-N.jpg,,,z
1,1,243,test,3,male,Asian,,,,new,,,,z,1030,True,False,,2,,,,False,513,AM-236,materials/cfd/Images/CFD/AM-236/CFD-AM-236-090-N.jpg,,,z
1,1,244,test,3,male,White,,,,old,happy,female,,m,906,True,False,,2,,,,False,515,WM-003,materials/cfd/Images/CFD/WM-003/CFD-WM-003-002-N.jpg,,,m
1,1,245,test,3,female,White,,,,old,angry,male,,z,710,False,False,,2,,,,False,517,WF-244,materials/cfd/Images/CFD/WF-244/CFD-WF-244-163-N.jpg,,,m
1,1,246,test,3,male,White,,,,old,happy,male,,m,964,True,False,,2,,,,False,519,WM-200,materials/cfd/Images/CFD/WM-200/CFD-WM-200-034-N.jpg,,,m
1,1,247,test,3,male,Black,,,,new,,,,z,1055,True,False,,2,,,,False,521,BM-244,materials/cfd/Images/CFD/BM-244/CFD-BM-244-197-N.jpg,,,z
1,1,248,test,3,female,Latino,,,,new,,,,z,869,True,False,,2,,,,False,523,LF-243,materials/cfd/Images/CFD/LF-243/CFD-LF-243-175-N.jpg,,,z
1,1,249,test,3,female,Asian,,,,new,,,,m,982,False,False,,2,,,,False,525,AF-204,materials/cfd/Images/CFD/AF-204/CFD-AF-204-067-N.jpg,,,z
1,1,250,test,3,male,Black,,,,new,,,,m,929,False,False,,2,,,,False,527,BM-015,materials/cfd/Images/CFD/BM-015/CFD-BM-015-015-N.jpg,,,z
1,1,251,test,3,female,Asian,,,,old,happy,female,,z,1037,False,False,,2,,,,False,529,AF-221,materials/cfd/Images/CFD/AF-221/CFD-AF-221-147-N.jpg,,,m
1,1,252,test,3,female,Asian,,,,new,,,,z,1317,True,False,,2,,,,False,531,AF-205,materials/cfd/Images/CFD/AF-205/CFD-AF-205-155-N.jpg,,,z
1,1,253,test,3,male,Asian,,,,new,,,,z,910,True,False,,2,,,,False,533,AM-202,materials/cfd/Images/CFD/AM-202/CFD-AM-202-079-N.jpg,,,z
1,1,254,test,3,female,Black,,,,old,neutral,male,,z,914,False,False,,2,,,,False,535,BF-203,materials/cfd/Images/CFD/BF-203/CFD-BF-203-184-N.jpg,,,m
1,1,255,test,3,male,Asian,,,,old,happy,male,,z,647,False,False,,2,,,,False,537,AM-231,materials/cfd/Images/CFD/AM-231/CFD-AM-231-136-N.jpg,,,m
1,1,256,test,3,male,Asian,,,,new,,,,z,1037,True,False,,2,,,,False,539,AM-239,materials/cfd/Images/CFD/AM-239/CFD-AM-239-147-N.jpg,,,z
1,1,257,test,3,female,White,,,,new,,,,z,1094,True,False,,2,,,,False,541,WF-228,materials/cfd/Images/CFD/WF-228/CFD-WF-228-196-N.jpg,,,z
1,1,258,test,3,female,Black,,,,new,,,,z,1188,True,False,,2,,,,False,543,BF-202,materials/cfd/Images/CFD/BF-202/CFD-BF-202-109-N.jpg,,,z
1,1,259,test,3,male,Asian,,,,new,,,,z,1049,True,False,,2,,,,False,545,AM-248,materials/cfd/Images/CFD/AM-248/CFD-AM-248-104-N.jpg,,,z
1,1,260,test,3,female,Black,,,,new,,,,m,1117,False,False,,2,,,,False,547,BF-223,materials/cfd/Images/CFD/BF-223/CFD-BF-223-250-N.jpg,,,z
1,1,261,test,3,male,Latino,,,,old,neutral,female,,z,1441,False,False,,2,,,,False,549,LM-234,materials/cfd/Images/CFD/LM-234/CFD-LM-234-176-N.jpg,,,m
1,1,262,test,3,male,Latino,,,,old,angry,female,,z,1012,False,False,,2,,,,False,551,LM-238,materials/cfd/Images/CFD/LM-238/CFD-LM-238-129-N.jpg,,,m
1,1,263,test,3,female,Asian,,,,new,,,,z,2072,True,False,,2,,,,False,553,AF-251,materials/cfd/Images/CFD/AF-251/CFD-AF-251-093-N.jpg,,,z
1,1,264,test,3,female,White,,,,old,angry,male,,z,2041,False,False,,2,,,,False,555,WF-202,materials/cfd/Images/CFD/WF-202/CFD-WF-202-056-N.jpg,,,m
1,1,265,test,3,female,Asian,,,,new,,,,m,874,False,False,,2,,,,False,557,AF-254,materials/cfd/Images/CFD/AF-254/CFD-AF-254-167-N.jpg,,,z
1,1,266,test,3,male,Black,,,,old,angry,male,,m,930,True,False,,2,,,,False,559,BM-250,materials/cfd/Images/CFD/BM-250/CFD-BM-250-170-N.jpg,,,m
1,1,267,test,3,male,White,,,,old,angry,male,,z,875,False,False,,2,,,,False,561,WM-011,materials/cfd/Images/CFD/WM-011/CFD-WM-011-002-N.jpg,,,m
1,1,268,test,3,female,Black,,,,new,,,,z,1210,True,False,,2,,,,False,563,BF-250,materials/cfd/Images/CFD/BF-250/CFD-BF-250-121-N.jpg,,,z
1,1,269,test,3,male,White,,,,old,neutral,female,,z,1426,False,False,,2,,,,False,565,WM-257,materials/cfd/Images/CFD/WM-257/CFD-WM-257-161-N.jpg,,,m
1,1,270,test,3,female,Latino,,,,new,,,,z,1583,True,False,,2,,,,False,567,LF-225,materials/cfd/Images/CFD/LF-225/CFD-LF-225-164-N.jpg,,,z
1,1,271,test,3,male,White,,,,new,,,,z,872,True,False,,2,,,,False,569,WM-018,materials/cfd/Images/CFD/WM-018/CFD-WM-018-002-N.jpg,,,z
1,1,272,test,3,male,Asian,,,,new,,,,z,1354,True,False,,2,,,,False,571,AM-216,materials/cfd/Images/CFD/AM-216/CFD-AM-216-114-N.jpg,,,z
1,1,273,test,3,female,White,,,,old,happy,male,,z,837,False,False,,2,,,,False,573,WF-205,materials/cfd/Images/CFD/WF-205/CFD-WF-205-006-N.jpg,,,m
1,1,274,test,3,male,Latino,,,,new,,,,m,1063,False,False,,2,,,,False,575,LM-214,materials/cfd/Images/CFD/LM-214/CFD-LM-214-165-N.jpg,,,z
1,1,275,test,3,male,Latino,,,,old,neutral,female,,m,973,True,False,,2,,,,False,577,LM-228,materials/cfd/Images/CFD/LM-228/CFD-LM-228-188-N.jpg,,,m
1,1,276,test,3,male,White,,,,new,,,,z,968,True,False,,2,,,,False,579,WM-225,materials/cfd/Images/CFD/WM-225/CFD-WM-225-127-N.jpg,,,z
1,1,277,test,3,male,White,,,,old,angry,female,,m,1048,True,False,,2,,,,False,581,WM-220,materials/cfd/Images/CFD/WM-220/CFD-WM-220-068-N.jpg,,,m
1,1,278,test,3,female,White,,,,new,,,,m,1270,False,False,,2,,,,False,583,WF-218,materials/cfd/Images/CFD/WF-218/CFD-WF-218-087-N.jpg,,,z
1,1,279,test,3,female,Asian,,,,old,angry,female,,m,748,True,False,,2,,,,False,585,AF-213,materials/cfd/Images/CFD/AF-213/CFD-AF-213-126-N.jpg,,,m
1,1,280,test,3,female,Asian,,,,new,,,,z,1410,True,False,,2,,,,False,587,AF-220,materials/cfd/Images/CFD/AF-220/CFD-AF-220-107-N.jpg,,,z
1,1,281,test,4,male,Asian,,,,old,angry,female,,m,1379,True,False,,2,,,,False,590,AM-252,materials/cfd/Images/CFD/AM-252/CFD-AM-252-114-N.jpg,,,m
1,1,282,test,4,male,Latino,,,,old,angry,male,,z,1281,False,False,,2,,,,False,592,LM-251,materials/cfd/Images/CFD/LM-251/CFD-LM-251-073-N.jpg,,,m
1,1,283,test,4,male,Black,,,,new,,,,m,2239,False,False,,2,,,,False,594,BM-206,materials/cfd/Images/CFD/BM-206/CFD-BM-206-114-N.jpg,,,z
1,1,284,test,4,male,Asian,,,,new,,,,z,1196,True,False,,2,,,,False,596,AM-247,materials/cfd/Images/CFD/AM-247/CFD-AM-247-165-N.jpg,,,z
1,1,285,test,4,male,White,,,,old,happy,female,,z,1312,False,False,,2,,,,False,598,WM-028,materials/cfd/Images/CFD/WM-028/CFD-WM-028-003-N.jpg,,,m
1,1,286,test,4,male,Latino,,,,new,,,,z,1335,True,False,,2,,,,False,600,LM-232,materials/cfd/Images/CFD/LM-232/CFD-LM-232-204-N.jpg,,,z
1,1,287,test,4,male,Black,,,,old,neutral,male,,m,1586,True,False,,2,,,,False,602,BM-225,materials/cfd/Images/CFD/BM-225/CFD-BM-225-154-N.jpg,,,m
1,1,288,test,4,male,Latino,,,,old,neutral,male,,m,1271,True,False,,2,,,,False,604,LM-219,materials/cfd/Images/CFD/LM-219/CFD-LM-219-295-N.jpg,,,m
1,1,289,test,4,male,Black,,,,new,,,,m,872,False,False,,2,,,,False,606,BM-034,materials/cfd/Images/CFD/BM-034/CFD-BM-034-031-N.jpg,,,z
1,1,290,test,4,female,Asian,,,,old,angry,female,,m,908,True,False,,2,,,,False,608,AF-248,materials/cfd/Images/CFD/AF-248/CFD-AF-248-148-N.jpg,,,m
1,1,291,test,4,male,White,,,,old,angry,female,,m,745,True,False,,2,,,,False,610,WM-209,materials/cfd/Images/CFD/WM-209/CFD-WM-209-038-N.jpg,,,m
1,1,292,test,4,male,Black,,,,old,neutral,male,,m,934,True,False,,2,,,,False,612,BM-005,materials/cfd/Images/CFD/BM-005/CFD-BM-005-003-N.jpg,,,m
1,1,293,test,4,male,Latino,,,,old,angry,female,,z,1050,False,False,,2,,,,False,614,LM-240,materials/cfd/Images/CFD/LM-240/CFD-LM-240-013-N.jpg,,,m
1,1,294,test,4,female,White,,,,old,happy,female,,z,1433,False,False,,2,,,,False,616,WF-034,materials/cfd/Images/CFD/WF-034/CFD-WF-034-006-N.jpg,,,m
1,1,295,test,4,male,Asian,,,,old,angry,male,,m,1125,True,False,,2,,,,False,618,AM-211,materials/cfd/Images/CFD/AM-211/CFD-AM-211-052-N.jpg,,,m
1,1,296,test,4,female,Black,,,,old,happy,male,,z,1091,False,False,,2,,,,False,620,BF-219,materials/cfd/Images/CFD/BF-219/CFD-BF-219-137-N.jpg,,,m
1,1,297,test,4,female,White,,,,old,angry,male,,z,896,False,False,,2,,,,False,622,WF-204,materials/cfd/Images/CFD/WF-204/CFD-WF-204-038-N.jpg,,,m
1,1,298,test,4,female,Asian,,,,old,happy,female,,z,1116,False,False,,2,,,,False,624,AF-246,materials/cfd/Images/CFD/AF-246/CFD-AF-246-242-N.jpg,,,m
1,1,299,test,4,female,White,,,,old,neutral,male,,z,1491,False,False,,2,,,,False,626,WF-245,materials/cfd/Images/CFD/WF-245/CFD-WF-245-084-N.jpg,,,m
1,1,300,test,4,male,Black,,,,old,happy,male,,m,1734,True,False,,2,,,,False,628,BM-213,materials/cfd/Images/CFD/BM-213/CFD-BM-213-134-N.jpg,,,m
1,1,301,test,4,female,Asian,,,,new,,,,z,2066,True,False,,2,,,,False,630,AF-225,materials/cfd/Images/CFD/AF-225/CFD-AF-225-141-N.jpg,,,z
1,1,302,test,4,male,Latino,,,,old,happy,male,,z,2806,False,False,,2,,,,False,632,LM-248,materials/cfd/Images/CFD/LM-248/CFD-LM-248-089-N.jpg,,,m
1,1,303,test,4,male,Latino,,,,old,angry,female,,m,995,True,False,,2,,,,False,634,LM-233,materials/cfd/Images/CFD/LM-233/CFD-LM-233-171-N.jpg,,,m
1,1,304,test,4,male,Black,,,,new,,,,m,2662,False,False,,2,,,,False,636,BM-208,materials/cfd/Images/CFD/BM-208/CFD-BM-208-065-N.jpg,,,z
1,1,305,test,4,female,Black,,,,new,,,,z,1192,True,False,,2,,,,False,638,BF-232,materials/cfd/Images/CFD/BF-232/CFD-BF-232-187-N.jpg,,,z
1,1,306,test,4,female,Latino,,,,new,,,,z,1480,True,False,,2,,,,False,640,LF-212,materials/cfd/Images/CFD/LF-212/CFD-LF-212-066-N.jpg,,,z
1,1,307,test,4,female,White,,,,new,,,,z,1996,True,False,,2,,,,False,642,WF-215,materials/cfd/Images/CFD/WF-215/CFD-WF-215-145-N.jpg,,,z
1,1,308,test,4,male,White,,,,new,,,,z,1629,True,False,,2,,,,False,644,WM-249,materials/cfd/Images/CFD/WM-249/CFD-WM-249-239-N.jpg,,,z
1,1,309,test,4,female,Black,,,,old,happy,male,,m,1960,True,False,,2,,,,False,646,BF-036,materials/cfd/Images/CFD/BF-036/CFD-BF-036-027-N.jpg,,,m
1,1,310,test,4,male,Asian,,,,new,,,,m,2231,False,False,,2,,,,False,648,AM-201,materials/cfd/Images/CFD/AM-201/CFD-AM-201-076-N.jpg,,,z
1,1,311,test,4,female,Asian,,,,old,neutral,male,,m,2187,True,False,,2,,,,False,650,AF-209,materials/cfd/Images/CFD/AF-209/CFD-AF-209-006-N.jpg,,,m
1,1,312,test,4,female,Black,,,,old,neutral,female,,m,2385,True,False,,2,,,,False,652,BF-025,materials/cfd/Images/CFD/BF-025/CFD-BF-025-002-N.jpg,,,m
1,1,313,test,4,female,White,,,,new,,,,z,2032,True,False,,2,,,,False,654,WF-016,materials/cfd/Images/CFD/WF-016/CFD-WF-016-015-N.jpg,,,z
1,1,314,test,4,male,White,,,,new,,,,m,1820,False,False,,2,,,,False,656,WM-014,materials/cfd/Images/CFD/WM-014/CFD-WM-014-002-N.jpg,,,z
1,1,315,test,4,male,Asian,,,,old,angry,female,,m,905,True,False,,2,,,,False,658,AM-228,materials/cfd/Images/CFD/AM-228/CFD-AM-228-214-N.jpg,,,m
1,1,316,test,4,female,White,,,,new,,,,z,960,True,False,,2,,,,False,660,WF-240,materials/cfd/Images/CFD/WF-240/CFD-WF-240-083-N.jpg,,,z
1,1,317,test,4,female,White,,,,new,,,,z,1719,True,False,,2,,,,False,662,WF-252,materials/cfd/Images/CFD/WF-252/CFD-WF-252-159-N.jpg,,,z
1,1,318,test,4,male,White,,,,new,,,,z,1505,True,False,,2,,,,False,664,WM-009,materials/cfd/Images/CFD/WM-009/CFD-WM-009-002-N.jpg,,,z
1,1,319,test,4,male,White,,,,new,,,,z,1333,True,False,,2,,,,False,666,WM-019,materials/cfd/Images/CFD/WM-019/CFD-WM-019-003-N.jpg,,,z
1,1,320,test,4,female,Black,,,,new,,,,m,1134,False,False,,2,,,,False,668,BF-216,materials/cfd/Images/CFD/BF-216/CFD-BF-216-132-N.jpg,,,z
1,1,321,test,5,male,Latino,,,,old,happy,male,,m,1771,True,False,,2,,,,False,671,LM-239,materials/cfd/Images/CFD/LM-239/CFD-LM-239-075-N.jpg,,,m
1,1,322,test,5,male,Black,,,,new,,,,m,897,False,False,,2,,,,False,673,BM-227,materials/cfd/Images/CFD/BM-227/CFD-BM-227-191-N.jpg,,,z
1,1,323,test,5,male,Asian,,,,new,,,,z,980,True,False,,2,,,,False,675,AM-226,materials/cfd/Images/CFD/AM-226/CFD-AM-226-234-N.jpg,,,z
1,1,324,test,5,female,Latino,,,,new,,,,z,832,True,False,,2,,,,False,677,LF-238,materials/cfd/Images/CFD/LF-238/CFD-LF-238-154-N.jpg,,,z
1,1,325,test,5,male,Asian,,,,old,neutral,male,,z,1336,False,False,,2,,,,False,679,AM-245,materials/cfd/Images/CFD/AM-245/CFD-AM-245-111-N.jpg,,,m
1,1,326,test,5,female,Black,,,,old,happy,male,,z,1827,False,False,,2,,,,False,681,BF-240,materials/cfd/Images/CFD/BF-240/CFD-BF-240-179-N.jpg,,,m
1,1,327,test,5,female,White,,,,new,,,,m,1564,False,False,,2,,,,False,683,WF-207,materials/cfd/Images/CFD/WF-207/CFD-WF-207-014-N.jpg,,,z
1,1,328,test,5,male,Black,,,,old,happy,male,,m,1042,True,False,,2,,,,False,685,BM-010,materials/cfd/Images/CFD/BM-010/CFD-BM-010-003-N.jpg,,,m
1,1,329,test,5,female,White,,,,new,,,,z,1342,True,False,,2,,,,False,687,WF-220,materials/cfd/Images/CFD/WF-220/CFD-WF-220-101-N.jpg,,,z
1,1,330,test,5,female,Asian,,,,new,,,,z,1287,True,False,,2,,,,False,689,AF-211,materials/cfd/Images/CFD/AF-211/CFD-AF-211-066-N.jpg,,,z
1,1,331,test,5,female,Latino,,,,old,happy,female,,m,975,True,False,,2,,,,False,691,LF-216,materials/cfd/Images/CFD/LF-216/CFD-LF-216-121-N.jpg,,,m
1,1,332,test,5,male,Black,,,,new,,,,z,943,True,False,,2,,,,False,693,BM-253,materials/cfd/Images/CFD/BM-253/CFD-BM-253-004-N.jpg,,,z
1,1,333,test,5,male,Latino,,,,new,,,,m,969,False,False,,2,,,,False,695,LM-200,materials/cfd/Images/CFD/LM-200/CFD-LM-200-045-N.jpg,,,z
1,1,334,test,5,female,White,,,,old,angry,female,,z,1831,False,False,,2,,,,False,697,WF-216,materials/cfd/Images/CFD/WF-216/CFD-WF-216-079-N.jpg,,,m
1,1,335,test,5,male,Black,,,,old,happy,male,,m,824,True,False,,2,,,,False,699,BM-026,materials/cfd/Images/CFD/BM-026/CFD-BM-026-002-N.jpg,,,m
1,1,336,test,5,female,Black,,,,old,neutral,female,,z,1352,False,False,,2,,,,False,701,BF-221,materials/cfd/Images/CFD/BF-221/CFD-BF-221-223-N.jpg,,,m
1,1,337,test,5,female,White,,,,new,,,,m,1563,False,False,,2,,,,False,703,WF-214,materials/cfd/Images/CFD/WF-214/CFD-WF-214-122-N.jpg,,,z
1,1,338,test,5,male,Asian,,,,new,,,,z,1696,True,False,,2,,,,False,705,AM-210,materials/cfd/Images/CFD/AM-210/CFD-AM-210-035-N.jpg,,,z
1,1,339,test,5,male,Latino,,,,old,neutral,female,,m,1190,True,False,,2,,,,False,707,LM-208,materials/cfd/Images/CFD/LM-208/CFD-LM-208-110-N.jpg,,,m
1,1,340,test,5,male,Black,,,,new,,,,z,1371,True,False,,2,,,,False,709,BM-224,materials/cfd/Images/CFD/BM-224/CFD-BM-224-073-N.jpg,,,z
1,1,341,test,5,male,Asian,,,,new,,,,z,1731,True,False,,2,,,,False,711,AM-246,materials/cfd/Images/CFD/AM-246/CFD-AM-246-184-N.jpg,,,z
1,1,342,test,5,female,Black,,,,new,,,,z,1092,True,False,,2,,,,False,713,BF-039,materials/cfd/Images/CFD/BF-039/CFD-BF-039-031-N.jpg,,,z
1,1,343,test,5,male,Asian,,,,old,neutral,female,,z,1683,False,False,,2,,,,False,715,AM-224,materials/cfd/Images/CFD/AM-224/CFD-AM-224-126-N.jpg,,,m
1,1,344,test,5,female,Black,,,,old,happy,male,,m,1943,True,False,,2,,,,False,717,BF-226,materials/cfd/Images/CFD/BF-226/CFD-BF-226-119-N.jpg,,,m
1,1,345,test,5,female,Asian,,,,new,,,,z,1498,True,False,,2,,,,False,719,AF-253,materials/cfd/Images/CFD/AF-253/CFD-AF-253-130-N.jpg,,,z
1,1,346,test,5,female,Latino,,,,old,angry,female,,m,1603,True,False,,2,,,,False,721,LF-203,materials/cfd/Images/CFD/LF-203/CFD-LF-203-066-N.jpg,,,m
1,1,347,test,5,male,Asian,,,,old,angry,male,,m,1264,True,False,,2,,,,False,723,AM-218,materials/cfd/Images/CFD/AM-218/CFD-AM-218-085-N.jpg,,,m
1,1,348,test,5,male,Black,,,,old,happy,female,,m,1354,True,False,,2,,,,False,725,BM-236,materials/cfd/Images/CFD/BM-236/CFD-BM-236-248-N.jpg,,,m
1,1,349,test,5,female,Black,,,,old,neutral,female,,z,1080,False,False,,2,,,,False,727,BF-023,materials/cfd/Images/CFD/BF-023/CFD-BF-023-010-N.jpg,,,m
1,1,350,test,5,female,White,,,,new,,,,z,1047,True,False,,2,,,,False,729,WF-007,materials/cfd/Images/CFD/WF-007/CFD-WF-007-001-N.jpg,,,z
1,1,351,test,5,male,White,,,,new,,,,z,1119,True,False,,2,,,,False,731,WM-244,materials/cfd/Images/CFD/WM-244/CFD-WM-244-003-N.jpg,,,z
1,1,352,test,5,female,Latino,,,,new,,,,z,1547,True,False,,2,,,,False,733,LF-247,materials/cfd/Images/CFD/LF-247/CFD-LF-247-051-N.jpg,,,z
1,1,353,test,5,male,Latino,,,,new,,,,z,1065,True,False,,2,,,,False,735,LM-220,materials/cfd/Images/CFD/LM-220/CFD-LM-220-329-N.jpg,,,z
1,1,354,test,5,male,White,,,,old,angry,male,,m,1361,True,False,,2,,,,False,737,WM-216,materials/cfd/Images/CFD/WM-216/CFD-WM-216-061-N.jpg,,,m
1,1,355,test,5,male,Asian,,,,old,happy,female,,z,1164,False,False,,2,,,,False,739,AM-205,materials/cfd/Images/CFD/AM-205/CFD-AM-205-153-N.jpg,,,m
1,1,356,test,5,male,White,,,,new,,,,m,1000,False,False,,2,,,,False,741,WM-203,materials/cfd/Images/CFD/WM-203/CFD-WM-203-023-N.jpg,,,z
1,1,357,test,5,male,Black,,,,new,,,,z,1203,True,False,,2,,,,False,743,BM-216,materials/cfd/Images/CFD/BM-216/CFD-BM-216-088-N.jpg,,,z
1,1,358,test,5,female,White,,,,new,,,,z,1176,True,False,,2,,,,False,745,WF-227,materials/cfd/Images/CFD/WF-227/CFD-WF-227-002-N.jpg,,,z
1,1,359,test,5,female,Black,,,,new,,,,z,1447,True,False,,2,,,,False,747,BF-252,materials/cfd/Images/CFD/BF-252/CFD-BF-252-191-N.jpg,,,z
1,1,360,test,5,male,White,,,,new,,,,z,985,True,False,,2,,,,False,749,WM-224,materials/cfd/Images/CFD/WM-224/CFD-WM-224-197-N.jpg,,,z
2,3,1,study,0,male,Black,female,Black,angry,,,,,z,925,True,False,,2,,,,False,13,BM-211,materials/cfd/Images/CFD/BM-211/CFD-BM-211-174-N.jpg,BF-027,materials/cfd/Images/CFD/BF-027/CFD-BF-027-008-A.jpg,z
2,3,2,study,0,female,Latino,female,Black,neutral,,,,,m,616,True,False,,2,,,,False,15,LF-239,materials/cfd/Images/CFD/LF-239/CFD-LF-239-148-N.jpg,BF-006,materials/cfd/Images/CFD/BF-006/CFD-BF-006-017-N.jpg,m
2,3,3,study,0,male,Asian,male,White,happy,,,,,z,641,True,False,,2,,,,False,17,AM-230,materials/cfd/Images/CFD/AM-230/CFD-AM-230-150-N.jpg,WM-009,materials/cfd/Images/CFD/WM-009/CFD-WM-009-004-HO.jpg,z
2,3,4,study,0,female,White,female,Black,angry,,,,,m,759,True,False,,2,,,,False,19,WF-248,materials/cfd/Images/CFD/WF-248/CFD-WF-248-129-N.jpg,BF-028,materials/cfd/Images/CFD/BF-028/CFD-BF-028-021-A.jpg,m
2,3,5,study,0,female,Black,male,Black,neutral,,,,,m,1861,True,False,,2,,,,False,21,BF-201,materials/cfd/Images/CFD/BF-201/CFD-BF-201-080-N.jpg,BM-044,materials/cfd/Images/CFD/BM-044/CFD-BM-044-001-N.jpg,m
2,3,6,study,0,male,Latino,male,Black,angry,,,,,z,658,True,False,,2,,,,False,23,LM-221,materials/cfd/Images/CFD/LM-221/CFD-LM-221-216-N.jpg,BM-031,materials/cfd/Images/CFD/BM-031/CFD-BM-031-030-A.jpg,z
2,3,7,study,0,male,White,male,White,angry,,,,,z,1219,True,False,,2,,,,False,25,WM-234,materials/cfd/Images/CFD/WM-234/CFD-WM-234-118-N.jpg,WM-012,materials/cfd/Images/CFD/WM-012/CFD-WM-012-015-A.jpg,z
2,3,8,study,0,male,White,female,White,angry,,,,,z,626,True,False,,2,,,,False,27,WM-213,materials/cfd/Images/CFD/WM-213/CFD-WM-213-076-N.jpg,WF-007,materials/cfd/Images/CFD/WF-007/CFD-WF-007-029-A.jpg,z
2,3,9,study,0,male,Asian,female,Black,neutral,,,,,z,764,True,False,,2,,,,False,29,AM-206,materials/cfd/Images/CFD/AM-206/CFD-AM-206-086-N.jpg,BF-224,materials/cfd/Images/CFD/BF-224/CFD-BF-224-002-N.jpg,z
2,3,10,study,0,male,Asian,male,Black,angry,,,,,z,1134,True,False,,2,,,,False,31,AM-217,materials/cfd/Images/CFD/AM-217/CFD-AM-217-085-N.jpg,BM-040,materials/cfd/Images/CFD/BM-040/CFD-BM-040-013-A.jpg,z
2,3,11,study,0,male,Asian,male,White,happy,,,,,z,1573,True,False,,2,,,,False,33,AM-243,materials/cfd/Images/CFD/AM-243/CFD-AM-243-212-N.jpg,WM-035,materials/cfd/Images/CFD/WM-035/CFD-WM-035-033-HO.jpg,z
2,3,12,study,0,male,Asian,female,Black,happy,,,,,z,444,True,False,,2,,,,False,35,AM-210,materials/cfd/Images/CFD/AM-210/CFD-AM-210-035-N.jpg,BF-024,materials/cfd/Images/CFD/BF-024/CFD-BF-024-005-HO.jpg,z
2,3,13,study,0,male,Black,male,White,happy,,,,,z,514,True,False,,2,,,,False,37,BM-218,materials/cfd/Images/CFD/BM-218/CFD-BM-218-132-N.jpg,WM-003,materials/cfd/Images/CFD/WM-003/CFD-WM-003-003-HO.jpg,z
2,3,14,study,0,female,Latino,male,White,angry,,,,,m,529,True,False,,2,,,,False,39,LF-242,materials/cfd/Images/CFD/LF-242/CFD-LF-242-121-N.jpg,WM-033,materials/cfd/Images/CFD/WM-033/CFD-WM-033-014-A.jpg,m
2,3,15,study,0,male,Asian,male,White,angry,,,,,z,622,True,False,,2,,,,False,41,AM-203,materials/cfd/Images/CFD/AM-203/CFD-AM-203-086-N.jpg,WM-019,materials/cfd/Images/CFD/WM-019/CFD-WM-019-013-A.jpg,z
2,3,16,study,0,female,White,female,Black,happy,,,,,m,665,True,False,,2,,,,False,43,WF-010,materials/cfd/Images/CFD/WF-010/CFD-WF-010-004-N.jpg,BF-017,materials/cfd/Images/CFD/BF-017/CFD-BF-017-004-HO.jpg,m
2,3,17,study,0,male,Latino,male,White,angry,,,,,z,525,True,False,,2,,,,False,45,LM-206,materials/cfd/Images/CFD/LM-206/CFD-LM-206-204-N.jpg,WM-016,materials/cfd/Images/CFD/WM-016/CFD-WM-016-008-A.jpg,z
2,3,18,study,0,female,Asian,female,White,happy,,,,,m,487,True,False,,2,,,,False,47,AF-255,materials/cfd/Images/CFD/AF-255/CFD-AF-255-209-N.jpg,WF-027,materials/cfd/Images/CFD/WF-027/CFD-WF-027-021-HO.jpg,m
2,3,19,study,0,male,Black,male,Black,happy,,,,,z,406,True,False,,2,,,,False,49,BM-045,materials/cfd/Images/CFD/BM-045/CFD-BM-045-004-N.jpg,BM-024,materials/cfd/Images/CFD/BM-024/CFD-BM-024-061-HO.jpg,z
2,3,20,study,0,female,Black,female,White,angry,,,,,m,963,True,False,,2,,,,False,51,BF-032,materials/cfd/Images/CFD/BF-032/CFD-BF-032-038-N.jpg,WF-038,materials/cfd/Images/CFD/WF-038/CFD-WF-038-030-A.jpg,m
2,3,21,study,0,female,Black,male,Black,happy,,,,,z,2826,False,False,,2,,,,False,53,BF-044,materials/cfd/Images/CFD/BF-044/CFD-BF-044-034-N.jpg,BM-041,materials/cfd/Images/CFD/BM-041/CFD-BM-041-041-HO.jpg,m
2,3,22,study,0,female,White,female,White,neutral,,,,,m,671,True,False,,2,,,,False,55,WF-225,materials/cfd/Images/CFD/WF-225/CFD-WF-225-101-N.jpg,WF-236,materials/cfd/Images/CFD/WF-236/CFD-WF-236-107-N.jpg,m
2,3,23,study,0,female,Asian,female,Black,happy,,,,,m,741,True,False,,2,,,,False,57,AF-239,materials/cfd/Images/CFD/AF-239/CFD-AF-239-171-N.jpg,BF-025,materials/cfd/Images/CFD/BF-025/CFD-BF-025-005-HO.jpg,m
2,3,24,study,0,female,Latino,female,White,happy,,,,,m,625,True,False,,2,,,,False,59,LF-229,materials/cfd/Images/CFD/LF-229/CFD-LF-229-164-N.jpg,WF-001,materials/cfd/Images/CFD/WF-001/CFD-WF-001-009-HO.jpg,m
2,3,25,study,0,female,Black,female,White,angry,,,,,m,866,True,False,,2,,,,False,61,BF-229,materials/cfd/Images/CFD/BF-229/CFD-BF-229-179-N.jpg,WF-019,materials/cfd/Images/CFD/WF-019/CFD-WF-019-015-A.jpg,m
2,3,26,study,0,male,Black,male,Black,angry,,,,,z,756,True,False,,2,,,,False,63,BM-236,materials/cfd/Images/CFD/BM-236/CFD-BM-236-248-N.jpg,BM-028,materials/cfd/Images/CFD/BM-028/CFD-BM-028-012-A.jpg,z
2,3,27,study,0,male,White,female,Black,angry,,,,,z,1739,True,False,,2,,,,False,65,WM-211,materials/cfd/Images/CFD/WM-211/CFD-WM-211-054-N.jpg,BF-009,materials/cfd/Images/CFD/BF-009/CFD-BF-009-024-A.jpg,z
2,3,28,study,0,male,White,female,White,neutral,,,,,z,1034,True,False,,2,,,,False,67,WM-248,materials/cfd/Images/CFD/WM-248/CFD-WM-248-036-N.jpg,WF-252,materials/cfd/Images/CFD/WF-252/CFD-WF-252-159-N.jpg,z
2,3,29,study,0,female,White,male,Black,angry,,,,,m,955,True,False,,2,,,,False,69,WF-018,materials/cfd/Images/CFD/WF-018/CFD-WF-018-017-N.jpg,BM-005,materials/cfd/Images/CFD/BM-005/CFD-BM-005-010-A.jpg,m
2,3,30,study,0,female,Black,male,Black,happy,,,,,m,663,True,False,,2,,,,False,71,BF-249,materials/cfd/Images/CFD/BF-249/CFD-BF-249-091-N.jpg,BM-015,materials/cfd/Images/CFD/BM-015/CFD-BM-015-016-HO.jpg,m
2,3,31,study,0,female,Asian,female,White,angry,,,,,m,774,True,False,,2,,,,False,73,AF-212,materials/cfd/Images/CFD/AF-212/CFD-AF-212-097-N.jpg,WF-036,materials/cfd/Images/CFD/WF-036/CFD-WF-036-015-A.jpg,m
2,3,32,study,0,male,Latino,male,White,neutral,,,,,z,1055,True,False,,2,,,,False,75,LM-219,materials/cfd/Images/CFD/LM-219/CFD-LM-219-295-N.jpg,WM-240,materials/cfd/Images/CFD/WM-240/CFD-WM-240-125-N.jpg,z
2,3,33,study,0,female,Black,female,Black,neutral,,,,,m,851,True,False,,2,,,,False,77,BF-047,materials/cfd/Images/CFD/BF-047/CFD-BF-047-003-N.jpg,BF-204,materials/cfd/Images/CFD/BF-204/CFD-BF-204-189-N.jpg,m
2,3,34,study,0,female,Latino,male,White,happy,,,,,m,663,True,False,,2,,,,False,79,LF-217,materials/cfd/Images/CFD/LF-217/CFD-LF-217-082-N.jpg,WM-015,materials/cfd/Images/CFD/WM-015/CFD-WM-015-005-HO.jpg,m
2,3,35,study,0,male,Asian,female,White,angry,,,,,z,847,True,False,,2,,,,False,81,AM-221,materials/cfd/Images/CFD/AM-221/CFD-AM-221-184-N.jpg,WF-022,materials/cfd/Images/CFD/WF-022/CFD-WF-022-023-A.jpg,z
2,3,36,study,0,female,Latino,male,Black,happy,,,,,m,652,True,False,,2,,,,False,83,LF-204,materials/cfd/Images/CFD/LF-204/CFD-LF-204-133-N.jpg,BM-025,materials/cfd/Images/CFD/BM-025/CFD-BM-025-040-HO.jpg,m
2,3,37,study,0,male,Latino,female,White,neutral,,,,,z,618,True,False,,2,,,,False,85,LM-246,materials/cfd/Images/CFD/LM-246/CFD-LM-246-087-N.jpg,WF-238,materials/cfd/Images/CFD/WF-238/CFD-WF-238-023-N.jpg,z
2,3,38,study,0,male,Asian,male,White,neutral,,,,,z,1549,True,False,,2,,,,False,87,AM-225,materials/cfd/Images/CFD/AM-225/CFD-AM-225-102-N.jpg,WM-039,materials/cfd/Images/CFD/WM-039/CFD-WM-039-018-N.jpg,z
2,3,39,study,0,female,Black,male,Black,neutral,,,,,m,654,True,False,,2,,,,False,89,BF-207,materials/cfd/Images/CFD/BF-207/CFD-BF-207-004-N.jpg,BM-233,materials/cfd/Images/CFD/BM-233/CFD-BM-233-285-N.jpg,m
2,3,40,study,0,female,Asian,female,White,happy,,,,,m,762,True,False,,2,,,,False,91,AF-254,materials/cfd/Images/CFD/AF-254/CFD-AF-254-167-N.jpg,WF-028,materials/cfd/Images/CFD/WF-028/CFD-WF-028-024-HO.jpg,m
2,3,41,study,1,male,Black,female,Black,angry,,,,,,,False,True,,2,,,,False,94,BM-200,materials/cfd/Images/CFD/BM-200/CFD-BM-200-046-N.jpg,BF-011,materials/cfd/Images/CFD/BF-011/CFD-BF-011-011-A.jpg,z
2,3,42,study,1,female,Black,male,White,angry,,,,,m,2754,True,False,,2,,,,False,96,BF-234,materials/cfd/Images/CFD/BF-234/CFD-BF-234-167-N.jpg,WM-040,materials/cfd/Images/CFD/WM-040/CFD-WM-040-007-A.jpg,m
2,3,43,study,1,female,Latino,male,White,angry,,,,,m,1875,True,False,,2,,,,False,98,LF-212,materials/cfd/Images/CFD/LF-212/CFD-LF-212-066-N.jpg,WM-004,materials/cfd/Images/CFD/WM-004/CFD-WM-004-011-A.jpg,m
2,3,44,study,1,female,Black,male,Black,angry,,,,,m,1077,True,False,,2,,,,False,100,BF-223,materials/cfd/Images/CFD/BF-223/CFD-BF-223-250-N.jpg,BM-046,materials/cfd/Images/CFD/BM-046/CFD-BM-046-048-A.jpg,m
2,3,45,study,1,male,Black,female,White,happy,,,,,z,1512,True,False,,2,,,,False,102,BM-240,materials/cfd/Images/CFD/BM-240/CFD-BM-240-207-N.jpg,WF-012,materials/cfd/Images/CFD/WF-012/CFD-WF-012-007-HO.jpg,z
2,3,46,study,1,female,White,female,Black,happy,,,,,m,1122,True,False,,2,,,,False,104,WF-232,materials/cfd/Images/CFD/WF-232/CFD-WF-232-161-N.jpg,BF-008,materials/cfd/Images/CFD/BF-008/CFD-BF-008-003-HO.jpg,m
2,3,47,study,1,male,Black,male,Black,angry,,,,,z,873,True,False,,2,,,,False,106,BM-009,materials/cfd/Images/CFD/BM-009/CFD-BM-009-002-N.jpg,BM-019,materials/cfd/Images/CFD/BM-019/CFD-BM-019-045-A.jpg,z
2,3,48,study,1,female,Black,female,Black,angry,,,,,m,1283,True,False,,2,,,,False,108,BF-014,materials/cfd/Images/CFD/BF-014/CFD-BF-014-002-N.jpg,BF-050,materials/cfd/Images/CFD/BF-050/CFD-BF-050-012-A.jpg,m
2,3,49,study,1,male,White,male,White,happy,,,,,z,930,True,False,,2,,,,False,110,WM-241,materials/cfd/Images/CFD/WM-241/CFD-WM-241-072-N.jpg,WM-002,materials/cfd/Images/CFD/WM-002/CFD-WM-002-007-HO.jpg,z
2,3,50,study,1,male,White,female,Black,happy,,,,,z,1438,True,False,,2,,,,False,112,WM-223,materials/cfd/Images/CFD/WM-223/CFD-WM-223-056-N.jpg,BF-049,materials/cfd/Images/CFD/BF-049/CFD-BF-049-034-HO.jpg,z
2,3,51,study,1,female,Black,female,White,angry,,,,,m,1286,True,False,,2,,,,False,114,BF-216,materials/cfd/Images/CFD/BF-216/CFD-BF-216-132-N.jpg,WF-011,materials/cfd/Images/CFD/WF-011/CFD-WF-011-011-A.jpg,m
2,3,52,study,1,female,Latino,male,White,neutral,,,,,m,1410,True,False,,2,,,,False,116,LF-219,materials/cfd/Images/CFD/LF-219/CFD-LF-219-223-N.jpg,WM-254,materials/cfd/Images/CFD/WM-254/CFD-WM-254-152-N.jpg,m
2,3,53,study,1,female,Latino,male,Black,happy,,,,,m,885,True,False,,2,,,,False,118,LF-207,materials/cfd/Images/CFD/LF-207/CFD-LF-207-198-N.jpg,BM-002,materials/cfd/Images/CFD/BM-002/CFD-BM-002-007-HO.jpg,m
2,3,54,study,1,female,Black,male,Black,happy,,,,,m,2298,True,False,,2,,,,False,120,BF-035,materials/cfd/Images/CFD/BF-035/CFD-BF-035-001-N.jpg,BM-021,materials/cfd/Images/CFD/BM-021/CFD-BM-021-022-HO.jpg,m
2,3,55,study,1,male,Black,male,Black,happy,,,,,z,1674,True,False,,2,,,,False,122,BM-246,materials/cfd/Images/CFD/BM-246/CFD-BM-246-192-N.jpg,BM-030,materials/cfd/Images/CFD/BM-030/CFD-BM-030-004-HO.jpg,z
2,3,56,study,1,female,Black,male,White,angry,,,,,,,False,True,,2,,,,False,124,BF-231,materials/cfd/Images/CFD/BF-231/CFD-BF-231-202-N.jpg,WM-022,materials/cfd/Images/CFD/WM-022/CFD-WM-022-008-A.jpg,m
2,3,57,study,1,male,White,female,White,neutral,,,,,z,1371,True,False,,2,,,,False,126,WM-236,materials/cfd/Images/CFD/WM-236/CFD-WM-236-072-N.jpg,WF-008,materials/cfd/Images/CFD/WF-008/CFD-WF-008-002-N.jpg,z
2,3,58,study,1,female,Asian,female,White,neutral,,,,,m,1294,True,False,,2,,,,False,128,AF-205,materials/cfd/Images/CFD/AF-205/CFD-AF-205-155-N.jpg,WF-016,materials/cfd/Images/CFD/WF-016/CFD-WF-016-015-N.jpg,m
2,3,59,study,1,male,White,male,White,neutral,,,,,z,1339,True,False,,2,,,,False,130,WM-258,materials/cfd/Images/CFD/WM-258/CFD-WM-258-125-N.jpg,WM-208,materials/cfd/Images/CFD/WM-208/CFD-WM-208-068-N.jpg,z
2,3,60,study,1,male,White,male,Black,angry,,,,,z,1297,True,False,,2,,,,False,132,WM-215,materials/cfd/Images/CFD/WM-215/CFD-WM-215-041-N.jpg,BM-037,materials/cfd/Images/CFD/BM-037/CFD-BM-037-041-A.jpg,z
2,3,61,study,1,male,White,female,Black,neutral,,,,,z,1187,True,False,,2,,,,False,134,WM-001,materials/cfd/Images/CFD/WM-001/CFD-WM-001-014-N.jpg,BF-036,materials/cfd/Images/CFD/BF-036/CFD-BF-036-027-N.jpg,z
2,3,62,study,1,male,Latino,male,Black,neutral,,,,,z,1307,True,False,,2,,,,False,136,LM-250,materials/cfd/Images/CFD/LM-250/CFD-LM-250-077-N.jpg,BM-201,materials/cfd/Images/CFD/BM-201/CFD-BM-201-077-N.jpg,z
2,3,63,study,1,male,White,female,White,neutral,,,,,z,1170,True,False,,2,,,,False,138,WM-204,materials/cfd/Images/CFD/WM-204/CFD-WM-204-031-N.jpg,WF-037,materials/cfd/Images/CFD/WF-037/CFD-WF-037-029-N.jpg,z
2,3,64,study,1,female,Asian,female,White,neutral,,,,,m,1219,True,False,,2,,,,False,140,AF-233,materials/cfd/Images/CFD/AF-233/CFD-AF-233-190-N.jpg,WF-215,materials/cfd/Images/CFD/WF-215/CFD-WF-215-145-N.jpg,m
2,3,65,study,1,female,White,female,Black,neutral,,,,,m,1274,True,False,,2,,,,False,142,WF-204,materials/cfd/Images/CFD/WF-204/CFD-WF-204-038-N.jpg,BF-226,materials/cfd/Images/CFD/BF-226/CFD-BF-226-119-N.jpg,m
2,3,66,study,1,female,Black,male,White,happy,,,,,m,1302,True,False,,2,,,,False,144,BF-051,materials/cfd/Images/CFD/BF-051/CFD-BF-051-035-N.jpg,WM-006,materials/cfd/Images/CFD/WM-006/CFD-WM-006-010-HO.jpg,m
2,3,67,study,1,male,Black,male,White,angry,,,,,z,1328,True,False,,2,,,,False,146,BM-036,materials/cfd/Images/CFD/BM-036/CFD-BM-036-003-N.jpg,WM-023,materials/cfd/Images/CFD/WM-023/CFD-WM-023-012-A.jpg,z
2,3,68,study,1,male,Latino,male,Black,neutral,,,,,z,1090,True,False,,2,,,,False,148,LM-218,materials/cfd/Images/CFD/LM-218/CFD-LM-218-183-N.jpg,BM-229,materials/cfd/Images/CFD/BM-229/CFD-BM-229-209-N.jpg,z
2,3,69,study,1,female,Asian,female,White,happy,,,,,m,1608,True,False,,2,,,,False,150,AF-221,materials/cfd/Images/CFD/AF-221/CFD-AF-221-147-N.jpg,WF-003,materials/cfd/Images/CFD/WF-003/CFD-WF-003-004-HO.jpg,m
2,3,70,study,1,male,Black,female,Black,angry,,,,,z,1741,True,False,,2,,,,False,152,BM-212,materials/cfd/Images/CFD/BM-212/CFD-BM-212-117-N.jpg,BF-040,materials/cfd/Images/CFD/BF-040/CFD-BF-040-051-A.jpg,z
2,3,71,study,1,female,White,female,Black,happy,,,,,m,1572,True,False,,2,,,,False,154,WF-029,materials/cfd/Images/CFD/WF-029/CFD-WF-029-002-N.jpg,BF-020,materials/cfd/Images/CFD/BF-020/CFD-BF-020-004-HO.jpg,m
2,3,72,study,1,female,White,female,White,angry,,,,,m,1886,True,False,,2,,,,False,156,WF-223,materials/cfd/Images/CFD/WF-223/CFD-WF-223-133-N.jpg,WF-031,materials/cfd/Images/CFD/WF-031/CFD-WF-031-015-A.jpg,m
2,3,73,study,1,female,White,male,Black,neutral,,,,,m,1850,True,False,,2,,,,False,158,WF-249,materials/cfd/Images/CFD/WF-249/CFD-WF-249-126-N.jpg,BM-222,materials/cfd/Images/CFD/BM-222/CFD-BM-222-173-N.jpg,m
2,3,74,study,1,male,Latino,female,White,happy,,,,,z,1336,True,False,,2,,,,False,160,LM-200,materials/cfd/Images/CFD/LM-200/CFD-LM-200-045-N.jpg,WF-024,materials/cfd/Images/CFD/WF-024/CFD-WF-024-006-HO.jpg,z
2,3,75,study,1,female,Black,female,Black,angry,,,,,m,1531,True,False,,2,,,,False,162,BF-018,materials/cfd/Images/CFD/BF-018/CFD-BF-018-039-N.jpg,BF-038,materials/cfd/Images/CFD/BF-038/CFD-BF-038-029-A.jpg,m
2,3,76,study,1,female,Latino,male,White,neutral,,,,,m,1622,True,False,,2,,,,False,164,LF-250,materials/cfd/Images/CFD/LF-250/CFD-LF-250-169-N.jpg,WM-031,materials/cfd/Images/CFD/WM-031/CFD-WM-031-003-N.jpg,m
2,3,77,study,1,male,White,female,Black,happy,,,,,z,1862,True,False,,2,,,,False,166,WM-242,materials/cfd/Images/CFD/WM-242/CFD-WM-242-011-N.jpg,BF-001,materials/cfd/Images/CFD/BF-001/CFD-BF-001-018-HO.jpg,z
2,3,78,study,1,female,Asian,male,Black,neutral,,,,,m,1823,True,False,,2,,,,False,168,AF-213,materials/cfd/Images/CFD/AF-213/CFD-AF-213-126-N.jpg,BM-247,materials/cfd/Images/CFD/BM-247/CFD-BM-247-240-N.jpg,m
2,3,79,study,1,male,White,male,Black,happy,,,,,z,1351,True,False,,2,,,,False,170,WM-217,materials/cfd/Images/CFD/WM-217/CFD-WM-217-070-N.jpg,BM-011,materials/cfd/Images/CFD/BM-011/CFD-BM-011-017-HO.jpg,z
2,3,80,study,1,male,White,female,White,happy,,,,,z,1544,True,False,,2,,,,False,172,WM-237,materials/cfd/Images/CFD/WM-237/CFD-WM-237-052-N.jpg,WF-025,materials/cfd/Images/CFD/WF-025/CFD-WF-025-006-HO.jpg,z
2,3,81,study,2,female,Latino,male,White,angry,,,,,m,1430,True,False,,2,,,,False,175,LF-238,materials/cfd/Images/CFD/LF-238/CFD-LF-238-154-N.jpg,WM-037,materials/cfd/Images/CFD/WM-037/CFD-WM-037-060-A.jpg,m
2,3,82,study,2,male,Latino,female,White,happy,,,,,z,1387,True,False,,2,,,,False,177,LM-232,materials/cfd/Images/CFD/LM-232/CFD-LM-232-204-N.jpg,WF-026,materials/cfd/Images/CFD/WF-026/CFD-WF-026-017-HO.jpg,z
2,3,83,study,2,male,Latino,female,White,angry,,,,,z,1351,True,False,,2,,,,False,179,LM-253,materials/cfd/Images/CFD/LM-253/CFD-LM-253-075-N.jpg,WF-030,materials/cfd/Images/CFD/WF-030/CFD-WF-030-033-A.jpg,z
2,3,84,study,2,male,Black,male,Black,angry,,,,,m,1459,False,False,,2,,,,False,181,BM-248,materials/cfd/Images/CFD/BM-248/CFD-BM-248-128-N.jpg,BM-010,materials/cfd/Images/CFD/BM-010/CFD-BM-010-019-A.jpg,z
2,3,85,study,2,female,Asian,female,White,angry,,,,,m,1467,True,False,,2,,,,False,183,AF-231,materials/cfd/Images/CFD/AF-231/CFD-AF-231-357-N.jpg,WF-021,materials/cfd/Images/CFD/WF-021/CFD-WF-021-018-A.jpg,m
2,3,86,study,2,female,Black,male,Black,neutral,,,,,m,1758,True,False,,2,,,,False,185,BF-248,materials/cfd/Images/CFD/BF-248/CFD-BF-248-149-N.jpg,BM-225,materials/cfd/Images/CFD/BM-225/CFD-BM-225-154-N.jpg,m
2,3,87,study,2,male,Black,female,White,neutral,,,,,z,2047,True,False,,2,,,,False,187,BM-203,materials/cfd/Images/CFD/BM-203/CFD-BM-203-001-N.jpg,WF-212,materials/cfd/Images/CFD/WF-212/CFD-WF-212-050-N.jpg,z
2,3,88,study,2,female,White,female,Black,happy,,,,,m,1555,True,False,,2,,,,False,189,WF-023,materials/cfd/Images/CFD/WF-023/CFD-WF-023-003-N.jpg,BF-041,materials/cfd/Images/CFD/BF-041/CFD-BF-041-004-HO.jpg,m
2,3,89,study,2,female,White,male,Black,neutral,,,,,m,2438,True,False,,2,,,,False,191,WF-034,materials/cfd/Images/CFD/WF-034/CFD-WF-034-006-N.jpg,BM-217,materials/cfd/Images/CFD/BM-217/CFD-BM-217-082-N.jpg,m
2,3,90,study,2,female,Black,female,Black,angry,,,,,m,1665,True,False,,2,,,,False,193,BF-236,materials/cfd/Images/CFD/BF-236/CFD-BF-236-177-N.jpg,BF-023,materials/cfd/Images/CFD/BF-023/CFD-BF-023-013-A.jpg,m
2,3,91,study,2,male,White,male,Black,neutral,,,,,z,1540,True,False,,2,,,,False,195,WM-216,materials/cfd/Images/CFD/WM-216/CFD-WM-216-061-N.jpg,BM-226,materials/cfd/Images/CFD/BM-226/CFD-BM-226-276-N.jpg,z
2,3,92,study,2,male,Asian,male,White,happy,,,,,z,2321,True,False,,2,,,,False,197,AM-212,materials/cfd/Images/CFD/AM-212/CFD-AM-212-050-N.jpg,WM-021,materials/cfd/Images/CFD/WM-021/CFD-WM-021-004-HO.jpg,z
2,3,93,study,2,female,Latino,female,White,happy,,,,,m,1456,True,False,,2,,,,False,199,LF-202,materials/cfd/Images/CFD/LF-202/CFD-LF-202-065-N.jpg,WF-009,materials/cfd/Images/CFD/WF-009/CFD-WF-009-004-HO.jpg,m
2,3,94,study,2,female,Asian,female,Black,neutral,,,,,m,1527,True,False,,2,,,,False,201,AF-232,materials/cfd/Images/CFD/AF-232/CFD-AF-232-078-N.jpg,BF-005,materials/cfd/Images/CFD/BF-005/CFD-BF-005-001-N.jpg,m
2,3,95,study,2,female,White,female,Black,neutral,,,,,m,1489,True,False,,2,,,,False,203,WF-218,materials/cfd/Images/CFD/WF-218/CFD-WF-218-087-N.jpg,BF-241,materials/cfd/Images/CFD/BF-241/CFD-BF-241-222-N.jpg,m
2,3,96,study,2,female,Asian,male,White,happy,,,,,m,1250,True,False,,2,,,,False,205,AF-244,materials/cfd/Images/CFD/AF-244/CFD-AF-244-168-N.jpg,WM-025,materials/cfd/Images/CFD/WM-025/CFD-WM-025-019-HO.jpg,m
2,3,97,study,2,female,Asian,male,White,neutral,,,,,m,1142,True,False,,2,,,,False,207,AF-204,materials/cfd/Images/CFD/AF-204/CFD-AF-204-067-N.jpg,WM-249,materials/cfd/Images/CFD/WM-249/CFD-WM-249-239-N.jpg,m
2,3,98,study,2,female,Black,male,White,angry,,,,,m,1929,True,False,,2,,,,False,209,BF-242,materials/cfd/Images/CFD/BF-242/CFD-BF-242-154-N.jpg,WM-011,materials/cfd/Images/CFD/WM-011/CFD-WM-011-011-A.jpg,m
2,3,99,study,2,male,White,male,White,neutral,,,,,z,2711,True,False,,2,,,,False,211,WM-253,materials/cfd/Images/CFD/WM-253/CFD-WM-253-119-N.jpg,WM-238,materials/cfd/Images/CFD/WM-238/CFD-WM-238-020-N.jpg,z
2,3,100,study,2,female,Black,male,White,happy,,,,,m,1632,True,False,,2,,,,False,213,BF-010,materials/cfd/Images/CFD/BF-010/CFD-BF-010-001-N.jpg,WM-034,materials/cfd/Images/CFD/WM-034/CFD-WM-034-035-HO.jpg,m
2,3,101,study,2,male,Black,female,Black,happy,,,,,z,2037,True,False,,2,,,,False,215,BM-242,materials/cfd/Images/CFD/BM-242/CFD-BM-242-233-N.jpg,BF-034,materials/cfd/Images/CFD/BF-034/CFD-BF-034-005-HO.jpg,z
2,3,102,study,2,male,White,female,Black,neutral,,,,,z,1796,True,False,,2,,,,False,217,WM-251,materials/cfd/Images/CFD/WM-251/CFD-WM-251-002-N.jpg,BF-240,materials/cfd/Images/CFD/BF-240/CFD-BF-240-179-N.jpg,z
2,3,103,study,2,female,Asian,male,Black,happy,,,,,m,1276,True,False,,2,,,,False,219,AF-222,materials/cfd/Images/CFD/AF-222/CFD-AF-222-134-N.jpg,BM-032,materials/cfd/Images/CFD/BM-032/CFD-BM-032-007-HO.jpg,m
2,3,104,study,2,male,White,male,Black,neutral,,,,,z,1519,True,False,,2,,,,False,221,WM-013,materials/cfd/Images/CFD/WM-013/CFD-WM-013-001-N.jpg,BM-038,materials/cfd/Images/CFD/BM-038/CFD-BM-038-001-N.jpg,z
2,3,105,study,2,male,Latino,female,Black,neutral,,,,,z,1697,True,False,,2,,,,False,223,LM-217,materials/cfd/Images/CFD/LM-217/CFD-LM-217-162-N.jpg,BF-200,materials/cfd/Images/CFD/BF-200/CFD-BF-200-080-N.jpg,z
2,3,106,study,2,male,White,male,White,happy,,,,,z,1301,True,False,,2,,,,False,225,WM-024,materials/cfd/Images/CFD/WM-024/CFD-WM-024-015-N.jpg,WM-029,materials/cfd/Images/CFD/WM-029/CFD-WM-029-029-HO.jpg,z
2,3,107,study,2,female,Asian,female,White,neutral,,,,,m,1625,True,False,,2,,,,False,227,AF-229,materials/cfd/Images/CFD/AF-229/CFD-AF-229-160-N.jpg,WF-230,materials/cfd/Images/CFD/WF-230/CFD-WF-230-158-N.jpg,m
2,3,108,study,2,female,Black,male,Black,angry,,,,,m,1614,True,False,,2,,,,False,229,BF-202,materials/cfd/Images/CFD/BF-202/CFD-BF-202-109-N.jpg,BM-018,materials/cfd/Images/CFD/BM-018/CFD-BM-018-012-A.jpg,m
2,3,109,study,2,male,Latino,female,Black,neutral,,,,,z,1876,True,False,,2,,,,False,231,LM-216,materials/cfd/Images/CFD/LM-216/CFD-LM-216-082-N.jpg,BF-219,materials/cfd/Images/CFD/BF-219/CFD-BF-219-137-N.jpg,z
2,3,110,study,2,male,White,male,Black,neutral,,,,,z,1505,True,False,,2,,,,False,233,WM-230,materials/cfd/Images/CFD/WM-230/CFD-WM-230-131-N.jpg,BM-213,materials/cfd/Images/CFD/BM-213/CFD-BM-213-134-N.jpg,z
2,3,111,study,2,male,White,female,White,angry,,,,,z,1299,True,False,,2,,,,False,235,WM-212,materials/cfd/Images/CFD/WM-212/CFD-WM-212-097-N.jpg,WF-013,materials/cfd/Images/CFD/WF-013/CFD-WF-013-015-A.jpg,z
2,3,112,study,2,male,Latino,female,Black,happy,,,,,z,1572,True,False,,2,,,,False,237,LM-222,materials/cfd/Images/CFD/LM-222/CFD-LM-222-239-N.jpg,BF-045,materials/cfd/Images/CFD/BF-045/CFD-BF-045-062-HO.jpg,z
2,3,113,study,2,female,Asian,male,Black,angry,,,,,m,1199,True,False,,2,,,,False,239,AF-251,materials/cfd/Images/CFD/AF-251/CFD-AF-251-093-N.jpg,BM-016,materials/cfd/Images/CFD/BM-016/CFD-BM-016-042-A.jpg,m
2,3,114,study,2,male,White,female,Black,angry,,,,,z,1406,True,False,,2,,,,False,241,WM-209,materials/cfd/Images/CFD/WM-209/CFD-WM-209-038-N.jpg,BF-021,materials/cfd/Images/CFD/BF-021/CFD-BF-021-016-A.jpg,z
2,3,115,study,2,male,Latino,female,Black,happy,,,,,z,1320,True,False,,2,,,,False,243,LM-211,materials/cfd/Images/CFD/LM-211/CFD-LM-211-128-N.jpg,BF-033,materials/cfd/Images/CFD/BF-033/CFD-BF-033-031-HO.jpg,z
2,3,116,study,2,male,Asian,male,Black,neutral,,,,,z,1476,True,False,,2,,,,False,245,AM-209,materials/cfd/Images/CFD/AM-209/CFD-AM-209-048-N.jpg,BM-004,materials/cfd/Images/CFD/BM-004/CFD-BM-004-002-N.jpg,z
2,3,117,study,2,female,Latino,male,White,neutral,,,,,m,1342,True,False,,2,,,,False,247,LF-205,materials/cfd/Images/CFD/LF-205/CFD-LF-205-100-N.jpg,WM-231,materials/cfd/Images/CFD/WM-231/CFD-WM-231-112-N.jpg,m
2,3,118,study,2,female,Asian,female,White,neutral,,,,,m,1445,True,False,,2,,,,False,249,AF-235,materials/cfd/Images/CFD/AF-235/CFD-AF-235-170-N.jpg,WF-020,materials/cfd/Images/CFD/WF-020/CFD-WF-020-002-N.jpg,m
2,3,119,study,2,male,White,male,White,happy,,,,,z,1750,True,False,,2,,,,False,251,WM-207,materials/cfd/Images/CFD/WM-207/CFD-WM-207-048-N.jpg,WM-018,materials/cfd/Images/CFD/WM-018/CFD-WM-018-004-HO.jpg,z
2,3,120,study,2,male,White,female,Black,angry,,,,,z,1484,True,False,,2,,,,False,253,WM-222,materials/cfd/Images/CFD/WM-222/CFD-WM-222-057-N.jpg,BF-002,materials/cfd/Images/CFD/BF-002/CFD-BF-002-018-A.jpg,z
2,3,121,test,0,female,Latino,,,,,neutral,female,,,,,True,,2,,,,False,256,LF-239,materials/cfd/Images/CFD/LF-239/CFD-LF-239-148-N.jpg,,,
2,3,122,test,0,female,Asian,,,,,happy,female,,6,2091,,False,6,2,,,,False,258,AF-239,materials/cfd/Images/CFD/AF-239/CFD-AF-239-171-N.jpg,,,
2,3,123,test,0,female,Black,,,,,angry,female,,4,1366,,False,4,2,,,,False,260,BF-236,materials/cfd/Images/CFD/BF-236/CFD-BF-236-177-N.jpg,,,
2,3,124,test,0,male,Asian,,,,,happy,male,,4,1265,,False,4,2,,,,False,262,AM-212,materials/cfd/Images/CFD/AM-212/CFD-AM-212-050-N.jpg,,,
2,3,125,test,0,female,Asian,,,,,happy,female,,3,1625,,False,3,2,,,,False,264,AF-221,materials/cfd/Images/CFD/AF-221/CFD-AF-221-147-N.jpg,,,
2,3,126,test,0,male,White,,,,,neutral,female,,4,1511,,False,4,2,,,,False,266,WM-204,materials/cfd/Images/CFD/WM-204/CFD-WM-204-031-N.jpg,,,
2,3,127,test,0,male,Black,,,,,happy,female,,5,1462,,False,5,2,,,,False,268,BM-242,materials/cfd/Images/CFD/BM-242/CFD-BM-242-233-N.jpg,,,
2,3,128,test,0,male,White,,,,,happy,female,,4,1382,,False,4,2,,,,False,270,WM-242,materials/cfd/Images/CFD/WM-242/CFD-WM-242-011-N.jpg,,,
2,3,129,test,0,female,White,,,,,angry,female,,4,1344,,False,4,2,,,,False,272,WF-223,materials/cfd/Images/CFD/WF-223/CFD-WF-223-133-N.jpg,,,
2,3,130,test,0,male,White,,,,,angry,male,,4,1132,,False,4,2,,,,False,274,WM-215,materials/cfd/Images/CFD/WM-215/CFD-WM-215-041-N.jpg,,,
2,3,131,test,0,male,White,,,,,happy,female,,2,1445,,False,2,2,,,,False,276,WM-223,materials/cfd/Images/CFD/WM-223/CFD-WM-223-056-N.jpg,,,
2,3,132,test,0,female,White,,,,,happy,female,,4,1461,,False,4,2,,,,False,278,WF-010,materials/cfd/Images/CFD/WF-010/CFD-WF-010-004-N.jpg,,,
2,3,133,test,0,male,Latino,,,,,neutral,female,,5,1966,,False,5,2,,,,False,280,LM-216,materials/cfd/Images/CFD/LM-216/CFD-LM-216-082-N.jpg,,,
2,3,134,test,0,female,White,,,,,happy,female,,3,1553,,False,3,2,,,,False,282,WF-232,materials/cfd/Images/CFD/WF-232/CFD-WF-232-161-N.jpg,,,
2,3,135,test,0,female,White,,,,,happy,female,,3,1741,,False,3,2,,,,False,284,WF-029,materials/cfd/Images/CFD/WF-029/CFD-WF-029-002-N.jpg,,,
2,3,136,test,0,female,Latino,,,,,angry,male,,6,1617,,False,6,2,,,,False,286,LF-238,materials/cfd/Images/CFD/LF-238/CFD-LF-238-154-N.jpg,,,
2,3,137,test,0,male,Latino,,,,,neutral,male,,6,1646,,False,6,2,,,,False,288,LM-218,materials/cfd/Images/CFD/LM-218/CFD-LM-218-183-N.jpg,,,
2,3,138,test,0,male,White,,,,,neutral,male,,7,1329,,False,7,2,,,,False,290,WM-253,materials/cfd/Images/CFD/WM-253/CFD-WM-253-119-N.jpg,,,
2,3,139,test,0,female,Asian,,,,,angry,female,,6,2694,,False,6,2,,,,False,292,AF-212,materials/cfd/Images/CFD/AF-212/CFD-AF-212-097-N.jpg,,,
2,3,140,test,0,male,White,,,,,angry,male,,6,1717,,False,6,2,,,,False,294,WM-234,materials/cfd/Images/CFD/WM-234/CFD-WM-234-118-N.jpg,,,
2,3,141,test,0,female,Black,,,,,neutral,male,,6,1613,,False,6,2,,,,False,296,BF-248,materials/cfd/Images/CFD/BF-248/CFD-BF-248-149-N.jpg,,,
2,3,142,test,0,male,Latino,,,,,angry,female,,4,1704,,False,4,2,,,,False,298,LM-253,materials/cfd/Images/CFD/LM-253/CFD-LM-253-075-N.jpg,,,
2,3,143,test,0,female,Black,,,,,angry,male,,4,1478,,False,4,2,,,,False,300,BF-202,materials/cfd/Images/CFD/BF-202/CFD-BF-202-109-N.jpg,,,
2,3,144,test,0,male,Black,,,,,happy,female,,5,1071,,False,5,2,,,,False,302,BM-240,materials/cfd/Images/CFD/BM-240/CFD-BM-240-207-N.jpg,,,
2,3,145,test,0,female,White,,,,,neutral,male,,6,1826,,False,6,2,,,,False,304,WF-034,materials/cfd/Images/CFD/WF-034/CFD-WF-034-006-N.jpg,,,
2,3,146,test,0,male,Asian,,,,,angry,male,,4,1693,,False,4,2,,,,False,306,AM-217,materials/cfd/Images/CFD/AM-217/CFD-AM-217-085-N.jpg,,,
2,3,147,test,0,female,Black,,,,,neutral,male,,4,1869,,False,4,2,,,,False,308,BF-207,materials/cfd/Images/CFD/BF-207/CFD-BF-207-004-N.jpg,,,
2,3,148,test,0,female,Black,,,,,happy,male,,4,2148,,False,4,2,,,,False,310,BF-051,materials/cfd/Images/CFD/BF-051/CFD-BF-051-035-N.jpg,,,
2,3,149,test,0,female,Asian,,,,,happy,male,,4,1940,,False,4,2,,,,False,312,AF-222,materials/cfd/Images/CFD/AF-222/CFD-AF-222-134-N.jpg,,,
2,3,150,test,0,male,Black,,,,,angry,male,,7,1629,,False,7,2,,,,False,314,BM-236,materials/cfd/Images/CFD/BM-236/CFD-BM-236-248-N.jpg,,,
2,3,151,test,0,male,White,,,,,happy,male,,6,1469,,False,6,2,,,,False,316,WM-207,materials/cfd/Images/CFD/WM-207/CFD-WM-207-048-N.jpg,,,
2,3,152,test,0,male,Latino,,,,,happy,female,,6,1703,,False,6,2,,,,False,318,LM-232,materials/cfd/Images/CFD/LM-232/CFD-LM-232-204-N.jpg,,,
2,3,153,test,0,female,Asian,,,,,neutral,female,,6,1372,,False,6,2,,,,False,320,AF-235,materials/cfd/Images/CFD/AF-235/CFD-AF-235-170-N.jpg,,,
2,3,154,test,0,male,Latino,,,,,neutral,female,,4,2051,,False,4,2,,,,False,322,LM-217,materials/cfd/Images/CFD/LM-217/CFD-LM-217-162-N.jpg,,,
2,3,155,test,0,female,Black,,,,,happy,male,,4,2292,,False,4,2,,,,False,324,BF-010,materials/cfd/Images/CFD/BF-010/CFD-BF-010-001-N.jpg,,,
2,3,156,test,0,male,White,,,,,happy,male,,5,1671,,False,5,2,,,,False,326,WM-217,materials/cfd/Images/CFD/WM-217/CFD-WM-217-070-N.jpg,,,
2,3,157,test,0,female,Asian,,,,,neutral,male,,5,1974,,False,5,2,,,,False,328,AF-213,materials/cfd/Images/CFD/AF-213/CFD-AF-213-126-N.jpg,,,
2,3,158,test,0,male,White,,,,,neutral,male,,5,1099,,False,5,2,,,,False,330,WM-258,materials/cfd/Images/CFD/WM-258/CFD-WM-258-125-N.jpg,,,
2,3,159,test,0,female,White,,,,,angry,female,,6,1827,,False,6,2,,,,False,332,WF-248,materials/cfd/Images/CFD/WF-248/CFD-WF-248-129-N.jpg,,,
2,3,160,test,0,female,Latino,,,,,neutral,male,,5,2112,,False,5,2,,,,False,334,LF-219,materials/cfd/Images/CFD/LF-219/CFD-LF-219-223-N.jpg,,,
2,3,161,test,1,male,Black,,,,,angry,female,,4,2656,,False,4,2,,,,False,337,BM-211,materials/cfd/Images/CFD/BM-211/CFD-BM-211-174-N.jpg,,,
2,3,162,test,1,male,Latino,,,,,neutral,male,,7,2510,,False,7,2,,,,False,339,LM-219,materials/cfd/Images/CFD/LM-219/CFD-LM-219-295-N.jpg,,,
2,3,163,test,1,female,Asian,,,,,happy,female,,6,2382,,False,6,2,,,,False,341,AF-254,materials/cfd/Images/CFD/AF-254/CFD-AF-254-167-N.jpg,,,
2,3,164,test,1,male,White,,,,,neutral,female,,4,1949,,False,4,2,,,,False,343,WM-001,materials/cfd/Images/CFD/WM-001/CFD-WM-001-014-N.jpg,,,
2,3,165,test,1,female,Black,,,,,angry,female,,4,1431,,False,4,2,,,,False,345,BF-014,materials/cfd/Images/CFD/BF-014/CFD-BF-014-002-N.jpg,,,
2,3,166,test,1,male,Asian,,,,,happy,male,,4,1858,,False,4,2,,,,False,347,AM-230,materials/cfd/Images/CFD/AM-230/CFD-AM-230-150-N.jpg,,,
2,3,167,test,1,male,Latino,,,,,happy,female,,4,1484,,False,4,2,,,,False,349,LM-200,materials/cfd/Images/CFD/LM-200/CFD-LM-200-045-N.jpg,,,
2,3,168,test,1,male,White,,,,,neutral,female,,6,1639,,False,6,2,,,,False,351,WM-236,materials/cfd/Images/CFD/WM-236/CFD-WM-236-072-N.jpg,,,
2,3,169,test,1,female,Black,,,,,angry,female,,6,874,,False,6,2,,,,False,353,BF-229,materials/cfd/Images/CFD/BF-229/CFD-BF-229-179-N.jpg,,,
2,3,170,test,1,female,Latino,,,,,happy,male,,5,2431,,False,5,2,,,,False,355,LF-207,materials/cfd/Images/CFD/LF-207/CFD-LF-207-198-N.jpg,,,
2,3,171,test,1,female,Black,,,,,angry,male,,5,1438,,False,5,2,,,,False,357,BF-231,materials/cfd/Images/CFD/BF-231/CFD-BF-231-202-N.jpg,,,
2,3,172,test,1,male,Asian,,,,,neutral,male,,,,,True,,2,,,,False,359,AM-209,materials/cfd/Images/CFD/AM-209/CFD-AM-209-048-N.jpg,,,
2,3,173,test,1,female,White,,,,,neutral,female,,4,1694,,False,4,2,,,,False,361,WF-225,materials/cfd/Images/CFD/WF-225/CFD-WF-225-101-N.jpg,,,
2,3,174,test,1,female,Asian,,,,,neutral,male,,4,1228,,False,4,2,,,,False,363,AF-204,materials/cfd/Images/CFD/AF-204/CFD-AF-204-067-N.jpg,,,
2,3,175,test,1,female,White,,,,,happy,female,,6,1679,,False,6,2,,,,False,365,WF-023,materials/cfd/Images/CFD/WF-023/CFD-WF-023-003-N.jpg,,,
2,3,176,test,1,male,Latino,,,,,neutral,male,,7,1431,,False,7,2,,,,False,367,LM-250,materials/cfd/Images/CFD/LM-250/CFD-LM-250-077-N.jpg,,,
2,3,177,test,1,female,Asian,,,,,neutral,female,,6,1339,,False,6,2,,,,False,369,AF-229,materials/cfd/Images/CFD/AF-229/CFD-AF-229-160-N.jpg,,,
2,3,178,test,1,female,Latino,,,,,happy,female,,6,1614,,False,6,2,,,,False,371,LF-202,materials/cfd/Images/CFD/LF-202/CFD-LF-202-065-N.jpg,,,
2,3,179,test,1,male,Latino,,,,,neutral,female,,3,1406,,False,3,2,,,,False,373,LM-246,materials/cfd/Images/CFD/LM-246/CFD-LM-246-087-N.jpg,,,
2,3,180,test,1,male,Black,,,,,angry,male,,4,1801,,False,4,2,,,,False,375,BM-036,materials/cfd/Images/CFD/BM-036/CFD-BM-036-003-N.jpg,,,
2,3,181,test,1,male,Black,,,,,happy,male,,4,1721,,False,4,2,,,,False,377,BM-045,materials/cfd/Images/CFD/BM-045/CFD-BM-045-004-N.jpg,,,
2,3,182,test,1,male,Latino,,,,,happy,female,,6,1558,,False,6,2,,,,False,379,LM-211,materials/cfd/Images/CFD/LM-211/CFD-LM-211-128-N.jpg,,,
2,3,183,test,1,male,White,,,,,angry,female,,6,1454,,False,6,2,,,,False,381,WM-212,materials/cfd/Images/CFD/WM-212/CFD-WM-212-097-N.jpg,,,
2,3,184,test,1,female,Latino,,,,,happy,male,,7,1553,,False,7,2,,,,False,383,LF-217,materials/cfd/Images/CFD/LF-217/CFD-LF-217-082-N.jpg,,,
2,3,185,test,1,female,Asian,,,,,angry,male,,6,1738,,False,6,2,,,,False,385,AF-251,materials/cfd/Images/CFD/AF-251/CFD-AF-251-093-N.jpg,,,
2,3,186,test,1,female,Asian,,,,,neutral,female,,6,1363,,False,6,2,,,,False,387,AF-233,materials/cfd/Images/CFD/AF-233/CFD-AF-233-190-N.jpg,,,
2,3,187,test,1,female,Black,,,,,angry,female,,5,2663,,False,5,2,,,,False,389,BF-032,materials/cfd/Images/CFD/BF-032/CFD-BF-032-038-N.jpg,,,
2,3,188,test,1,male,White,,,,,angry,female,,5,1860,,False,5,2,,,,False,391,WM-222,materials/cfd/Images/CFD/WM-222/CFD-WM-222-057-N.jpg,,,
2,3,189,test,1,male,White,,,,,neutral,female,,6,1915,,False,6,2,,,,False,393,WM-248,materials/cfd/Images/CFD/WM-248/CFD-WM-248-036-N.jpg,,,
2,3,190,test,1,male,Asian,,,,,happy,male,,5,1966,,False,5,2,,,,False,395,AM-243,materials/cfd/Images/CFD/AM-243/CFD-AM-243-212-N.jpg,,,
2,3,191,test,1,male,Black,,,,,angry,male,,4,1918,,False,4,2,,,,False,397,BM-009,materials/cfd/Images/CFD/BM-009/CFD-BM-009-002-N.jpg,,,
2,3,192,test,1,female,Black,,,,,neutral,female,,6,1188,,False,6,2,,,,False,399,BF-047,materials/cfd/Images/CFD/BF-047/CFD-BF-047-003-N.jpg,,,
2,3,193,test,1,female,White,,,,,neutral,male,,5,1774,,False,5,2,,,,False,401,WF-249,materials/cfd/Images/CFD/WF-249/CFD-WF-249-126-N.jpg,,,
2,3,194,test,1,female,Black,,,,,angry,female,,6,1368,,False,6,2,,,,False,403,BF-216,materials/cfd/Images/CFD/BF-216/CFD-BF-216-132-N.jpg,,,
2,3,195,test,1,female,Latino,,,,,happy,female,,6,1081,,False,6,2,,,,False,405,LF-229,materials/cfd/Images/CFD/LF-229/CFD-LF-229-164-N.jpg,,,
2,3,196,test,1,female,Latino,,,,,angry,male,,6,1023,,False,6,2,,,,False,407,LF-242,materials/cfd/Images/CFD/LF-242/CFD-LF-242-121-N.jpg,,,
2,3,197,test,1,female,Latino,,,,,neutral,male,,6,850,,False,6,2,,,,False,409,LF-205,materials/cfd/Images/CFD/LF-205/CFD-LF-205-100-N.jpg,,,
2,3,198,test,1,male,Black,,,,,angry,female,,6,1187,,False,6,2,,,,False,411,BM-212,materials/cfd/Images/CFD/BM-212/CFD-BM-212-117-N.jpg,,,
2,3,199,test,1,male,White,,,,,happy,male,,6,1260,,False,6,2,,,,False,413,WM-024,materials/cfd/Images/CFD/WM-024/CFD-WM-024-015-N.jpg,,,
2,3,200,test,1,male,Black,,,,,angry,female,,7,1187,,False,7,2,,,,False,415,BM-200,materials/cfd/Images/CFD/BM-200/CFD-BM-200-046-N.jpg,,,
2,3,201,test,2,male,Black,,,,,neutral,female,,5,1536,,False,5,2,,,,False,418,BM-203,materials/cfd/Images/CFD/BM-203/CFD-BM-203-001-N.jpg,,,
2,3,202,test,2,female,White,,,,,angry,male,,4,1903,,False,4,2,,,,False,420,WF-018,materials/cfd/Images/CFD/WF-018/CFD-WF-018-017-N.jpg,,,
2,3,203,test,2,male,Asian,,,,,happy,female,,5,1433,,False,5,2,,,,False,422,AM-210,materials/cfd/Images/CFD/AM-210/CFD-AM-210-035-N.jpg,,,
2,3,204,test,2,male,White,,,,,angry,female,,6,1482,,False,6,2,,,,False,424,WM-209,materials/cfd/Images/CFD/WM-209/CFD-WM-209-038-N.jpg,,,
2,3,205,test,2,female,Asian,,,,,happy,male,,7,1203,,False,7,2,,,,False,426,AF-244,materials/cfd/Images/CFD/AF-244/CFD-AF-244-168-N.jpg,,,
2,3,206,test,2,female,Asian,,,,,happy,female,,5,2121,,False,5,2,,,,False,428,AF-255,materials/cfd/Images/CFD/AF-255/CFD-AF-255-209-N.jpg,,,
2,3,207,test,2,male,White,,,,,happy,female,,5,1729,,False,5,2,,,,False,430,WM-237,materials/cfd/Images/CFD/WM-237/CFD-WM-237-052-N.jpg,,,
2,3,208,test,2,female,White,,,,,neutral,female,,4,1495,,False,4,2,,,,False,432,WF-204,materials/cfd/Images/CFD/WF-204/CFD-WF-204-038-N.jpg,,,
2,3,209,test,2,female,Black,,,,,angry,male,,6,1706,,False,6,2,,,,False,434,BF-223,materials/cfd/Images/CFD/BF-223/CFD-BF-223-250-N.jpg,,,
2,3,210,test,2,female,Latino,,,,,neutral,male,,5,1520,,False,5,2,,,,False,436,LF-250,materials/cfd/Images/CFD/LF-250/CFD-LF-250-169-N.jpg,,,
2,3,211,test,2,female,White,,,,,neutral,female,,6,1820,,False,6,2,,,,False,438,WF-218,materials/cfd/Images/CFD/WF-218/CFD-WF-218-087-N.jpg,,,
2,3,212,test,2,female,Black,,,,,happy,male,,6,1776,,False,6,2,,,,False,440,BF-035,materials/cfd/Images/CFD/BF-035/CFD-BF-035-001-N.jpg,,,
2,3,213,test,2,male,Asian,,,,,neutral,female,,5,1769,,False,5,2,,,,False,442,AM-206,materials/cfd/Images/CFD/AM-206/CFD-AM-206-086-N.jpg,,,
2,3,214,test,2,male,Black,,,,,happy,male,,5,1878,,False,5,2,,,,False,444,BM-246,materials/cfd/Images/CFD/BM-246/CFD-BM-246-192-N.jpg,,,
2,3,215,test,2,male,White,,,,,neutral,male,,6,1063,,False,6,2,,,,False,446,WM-230,materials/cfd/Images/CFD/WM-230/CFD-WM-230-131-N.jpg,,,
2,3,216,test,2,female,Black,,,,,angry,male,,5,2745,,False,5,2,,,,False,448,BF-234,materials/cfd/Images/CFD/BF-234/CFD-BF-234-167-N.jpg,,,
2,3,217,test,2,female,Black,,,,,neutral,male,,5,1257,,False,5,2,,,,False,450,BF-201,materials/cfd/Images/CFD/BF-201/CFD-BF-201-080-N.jpg,,,
2,3,218,test,2,female,Black,,,,,angry,male,,6,1358,,False,6,2,,,,False,452,BF-242,materials/cfd/Images/CFD/BF-242/CFD-BF-242-154-N.jpg,,,
2,3,219,test,2,male,White,,,,,angry,female,,6,1052,,False,6,2,,,,False,454,WM-213,materials/cfd/Images/CFD/WM-213/CFD-WM-213-076-N.jpg,,,
2,3,220,test,2,female,Black,,,,,angry,female,,6,2043,,False,6,2,,,,False,456,BF-018,materials/cfd/Images/CFD/BF-018/CFD-BF-018-039-N.jpg,,,
2,3,221,test,2,female,Asian,,,,,neutral,female,,7,1410,,False,7,2,,,,False,458,AF-232,materials/cfd/Images/CFD/AF-232/CFD-AF-232-078-N.jpg,,,
2,3,222,test,2,female,Asian,,,,,neutral,female,,5,2048,,False,5,2,,,,False,460,AF-205,materials/cfd/Images/CFD/AF-205/CFD-AF-205-155-N.jpg,,,
2,3,223,test,2,male,Latino,,,,,angry,male,,6,1960,,False,6,2,,,,False,462,LM-221,materials/cfd/Images/CFD/LM-221/CFD-LM-221-216-N.jpg,,,
2,3,224,test,2,female,Black,,,,,happy,male,,6,2018,,False,6,2,,,,False,464,BF-249,materials/cfd/Images/CFD/BF-249/CFD-BF-249-091-N.jpg,,,
2,3,225,test,2,male,Asian,,,,,angry,male,,5,1304,,False,5,2,,,,False,466,AM-203,materials/cfd/Images/CFD/AM-203/CFD-AM-203-086-N.jpg,,,
2,3,226,test,2,male,White,,,,,angry,female,,5,1252,,False,5,2,,,,False,468,WM-211,materials/cfd/Images/CFD/WM-211/CFD-WM-211-054-N.jpg,,,
2,3,227,test,2,male,White,,,,,neutral,female,,6,1107,,False,6,2,,,,False,470,WM-251,materials/cfd/Images/CFD/WM-251/CFD-WM-251-002-N.jpg,,,
2,3,228,test,2,male,Black,,,,,happy,male,,5,1494,,False,5,2,,,,False,472,BM-218,materials/cfd/Images/CFD/BM-218/CFD-BM-218-132-N.jpg,,,
2,3,229,test,2,male,Black,,,,,angry,male,,5,2452,,False,5,2,,,,False,474,BM-248,materials/cfd/Images/CFD/BM-248/CFD-BM-248-128-N.jpg,,,
2,3,230,test,2,female,Asian,,,,,angry,female,,5,1570,,False,5,2,,,,False,476,AF-231,materials/cfd/Images/CFD/AF-231/CFD-AF-231-357-N.jpg,,,
2,3,231,test,2,male,White,,,,,neutral,male,,4,1764,,False,4,2,,,,False,478,WM-216,materials/cfd/Images/CFD/WM-216/CFD-WM-216-061-N.jpg,,,
2,3,232,test,2,male,White,,,,,neutral,male,,5,1872,,False,5,2,,,,False,480,WM-013,materials/cfd/Images/CFD/WM-013/CFD-WM-013-001-N.jpg,,,
2,3,233,test,2,male,White,,,,,happy,male,,5,2614,,False,5,2,,,,False,482,WM-241,materials/cfd/Images/CFD/WM-241/CFD-WM-241-072-N.jpg,,,
2,3,234,test,2,male,Asian,,,,,neutral,male,,5,2108,,False,5,2,,,,False,484,AM-225,materials/cfd/Images/CFD/AM-225/CFD-AM-225-102-N.jpg,,,
2,3,235,test,2,female,Latino,,,,,happy,male,,4,1323,,False,4,2,,,,False,486,LF-204,materials/cfd/Images/CFD/LF-204/CFD-LF-204-133-N.jpg,,,
2,3,236,test,2,female,Black,,,,,happy,male,,5,2261,,False,5,2,,,,False,488,BF-044,materials/cfd/Images/CFD/BF-044/CFD-BF-044-034-N.jpg,,,
2,3,237,test,2,male,Latino,,,,,happy,female,,6,2698,,False,6,2,,,,False,490,LM-222,materials/cfd/Images/CFD/LM-222/CFD-LM-222-239-N.jpg,,,
2,3,238,test,2,male,Latino,,,,,angry,male,,5,1808,,False,5,2,,,,False,492,LM-206,materials/cfd/Images/CFD/LM-206/CFD-LM-206-204-N.jpg,,,
2,3,239,test,2,male,Asian,,,,,angry,female,,4,1358,,False,4,2,,,,False,494,AM-221,materials/cfd/Images/CFD/AM-221/CFD-AM-221-184-N.jpg,,,
