[{"success":true,"timeout":false,"failed_images":[],"failed_audio":[],"failed_video":[],"trial_type":"preload","trial_index":0,"time_elapsed":1479,"internal_node_id":"0.0-0.0","condition":1,"key_mapping":2,"test_mode":false,"subject_id":"","study_id":"","session_id":""},{"view_history":[{"page_index":0,"viewing_time":33441}],"rt":33442,"trial_type":"instructions","trial_index":1,"time_elapsed":34921,"internal_node_id":"0.0-1.0","condition":1,"key_mapping":2,"test_mode":false,"subject_id":"","study_id":"","session_id":""},{"rt":5007,"stimulus":"<h2>Practice Trials</h2><p>You will now complete a few practice trials to familiarize yourself with the task.</p><p>Press any key to begin the practice.</p>","response":" ","trial_type":"html-keyboard-response","trial_index":2,"time_elapsed":39929,"internal_node_id":"0.0-2.0","condition":1,"key_mapping":2,"test_mode":false,"subject_id":"","study_id":"","session_id":""},{"rt":null,"stimulus":"<span class=\"fixation-cross\">+</span>","response":null,"phase":"study","trial_part":"fixation","trial_type":"html-keyboard-response","trial_index":3,"time_elapsed":41940,"internal_node_id":"0.0-3.0","condition":1,"key_mapping":2,"test_mode":false,"subject_id":"","study_id":"","session_id":""},{"rt":2078,"stimulus":"<div class=\"flanker-display\" style=\"gap: 0px;\"><img src=\"materials/cfd/Images/CFD/BF-018/CFD-BF-018-039-N.jpg\" class=\"face-image\" style=\"width: 200px;\" /><img src=\"materials/cfd/Images/CFD/WF-238/CFD-WF-238-023-N.jpg\" class=\"face-image\" style=\"width: 200px;\" /><img src=\"materials/cfd/Images/CFD/BF-018/CFD-BF-018-039-N.jpg\" class=\"face-image\" style=\"width: 200px;\" /></div>","response":"m","phase":"study","block":"practice","target_id":"WF-238","target_gender":"F","target_race":"W","target_filename":"materials/cfd/Images/CFD/WF-238/CFD-WF-238-023-N.jpg","flanker_id":"BF-018","flanker_gender":"F","flanker_race":"B","flanker_emotion":"neutral","flanker_filename":"materials/cfd/Images/CFD/BF-018/CFD-BF-018-039-N.jpg","trial_type":"html-keyboard-response","trial_index":4,"time_elapsed":44953,"internal_node_id":"0.0-4.0","condition":1,"key_mapping":2,"test_mode":false,"subject_id":"","study_id":"","session_id":"","timed_out":false,"correct_response":"m","correct":true},{"rt":null,"stimulus":"<span class=\"fixation-cross\">+</span>","response":null,"phase":"study","trial_part":"fixation","trial_type":"html-keyboard-response","trial_index":5,"time_elapsed":46955,"internal_node_id":"0.0-5.0","condition":1,"key_mapping":2,"test_mode":false,"subject_id":"","study_id":"","session_id":""},{"rt":1222,"stimulus":"<div class=\"flanker-display\" style=\"gap: 0px;\"><img src=\"materials/cfd/Images/CFD/WF-249/CFD-WF-249-126-N.jpg\" class=\"face-image\" style=\"width: 200px;\" /><img src=\"materials/cfd/Images/CFD/AF-249/CFD-AF-249-092-N.jpg\" class=\"face-image\" style=\"width: 200px;\" /><img src=\"materials/cfd/Images/CFD/WF-249/CFD-WF-249-126-N.jpg\" class=\"face-image\" style=\"width: 200px;\" /></div>","response":"m","phase":"study","block":"practice","target_id":"AF-249","target_gender":"F","target_race":"A","target_filename":"materials/cfd/Images/CFD/AF-249/CFD-AF-249-092-N.jpg","flanker_id":"WF-249","flanker_gender":"F","flanker_race":"W","flanker_emotion":"neutral","flanker_filename":"materials/cfd/Images/CFD/WF-249/CFD-WF-249-126-N.jpg","trial_type":"html-keyboard-response","trial_index":6,"time_elapsed":49969,"internal_node_id":"0.0-6.0","condition":1,"key_mapping":2,"test_mode":false,"subject_id":"","study_id":"","session_id":"","timed_out":false,"correct_response":"m","correct":true},{"rt":null,"stimulus":"<span class=\"fixation-cross\">+</span>","response":null,"phase":"study","trial_part":"fixation","trial_type":"html-keyboard-response","trial_index":7,"time_elapsed":51973,"internal_node_id":"0.0-7.0","condition":1,"key_mapping":2,"test_mode":false,"subject_id":"","study_id":"","session_id":""},{"rt":1753,"stimulus":"<div class=\"flanker-display\" style=\"gap: 0px;\"><img src=\"materials/cfd/Images/CFD/WM-012/CFD-WM-012-001-N.jpg\" class=\"face-image\" style=\"width: 200px;\" /><img src=\"materials/cfd/Images/CFD/WM-206/CFD-WM-206-045-N.jpg\" class=\"face-image\" style=\"width: 200px;\" /><img src=\"materials/cfd/Images/CFD/WM-012/CFD-WM-012-001-N.jpg\" class=\"face-image\" style=\"width: 200px;\" /></div>","response":"z","phase":"study","block":"practice","target_id":"WM-206","target_gender":"M","target_race":"W","target_filename":"materials/cfd/Images/CFD/WM-206/CFD-WM-206-045-N.jpg","flanker_id":"WM-012","flanker_gender":"M","flanker_race":"W","flanker_emotion":"neutral","flanker_filename":"materials/cfd/Images/CFD/WM-012/CFD-WM-012-001-N.jpg","trial_type":"html-keyboard-response","trial_index":8,"time_elapsed":54982,"internal_node_id":"0.0-8.0","condition":1,"key_mapping":2,"test_mode":false,"subject_id":"","study_id":"","session_id":"","timed_out":false,"correct_response":"z","correct":true},{"rt":null,"stimulus":"<span class=\"fixation-cross\">+</span>","response":null,"phase":"study","trial_part":"fixation","trial_type":"html-keyboard-response","trial_index":9,"time_elapsed":56986,"internal_node_id":"0.0-9.0","condition":1,"key_mapping":2,"test_mode":false,"subject_id":"","study_id":"","session_id":""},{"rt":1782,"stimulus":"<div class=\"flanker-display\" style=\"gap: 0px;\"><img src=\"materials/cfd/Images/CFD/WM-228/CFD-WM-228-065-N.jpg\" class=\"face-image\" style=\"width: 200px;\" /><img src=\"materials/cfd/Images/CFD/BM-232/CFD-BM-232-213-N.jpg\" class=\"face-image\" style=\"width: 200px;\" /><img src=\"materials/cfd/Images/CFD/WM-228/CFD-WM-228-065-N.jpg\" class=\"face-image\" style=\"width: 200px;\" /></div>","response":"z","phase":"study","block":"practice","target_id":"BM-232","target_gender":"M","target_race":"B","target_filename":"materials/cfd/Images/CFD/BM-232/CFD-BM-232-213-N.jpg","flanker_id":"WM-228","flanker_gender":"M","flanker_race":"W","flanker_emotion":"neutral","flanker_filename":"materials/cfd/Images/CFD/WM-228/CFD-WM-228-065-N.jpg","trial_type":"html-keyboard-response","trial_index":10,"time_elapsed":60000,"internal_node_id":"0.0-10.0","condition":1,"key_mapping":2,"test_mode":false,"subject_id":"","study_id":"","session_id":"","timed_out":false,"correct_response":"z","correct":true},{"rt":13517,"stimulus":"<h2>Practice Complete</h2><p>The practice trials are over. The real trials will begin next.</p><p>Press any key to continue.</p>","response":" ","trial_type":"html-keyboard-response","trial_index":11,"time_elapsed":73517,"internal_node_id":"0.0-11.0","condition":1,"key_mapping":2,"test_mode":false,"subject_id":"","study_id":"","session_id":""},{"rt":null,"stimulus":"<span class=\"fixation-cross\">+</span>","response":null,"phase":"study","trial_part":"fixation","trial_type":"html-keyboard-response","trial_index":12,"time_elapsed":75522,"internal_node_id":"0.0-12.0","condition":1,"key_mapping":2,"test_mode":false,"subject_id":"","study_id":"","session_id":""},{"rt":1546,"stimulus":"<div class=\"flanker-display\" style=\"gap: 0px;\"><img src=\"materials/cfd/Images/CFD/BM-252/CFD-BM-252-161-N.jpg\" class=\"face-image\" style=\"width: 200px;\" /><img src=\"materials/cfd/Images/CFD/BF-203/CFD-BF-203-184-N.jpg\" class=\"face-image\" style=\"width: 200px;\" /><img src=\"materials/cfd/Images/CFD/BM-252/CFD-BM-252-161-N.jpg\" class=\"face-image\" style=\"width: 200px;\" /></div>","response":"m","phase":"study","block":0,"target_id":"BF-203","target_gender":"F","target_race":"B","target_filename":"materials/cfd/Images/CFD/BF-203/CFD-BF-203-184-N.jpg","flanker_id":"BM-252","flanker_gender":"M","flanker_race":"B","flanker_emotion":"neutral","flanker_filename":"materials/cfd/Images/CFD/BM-252/CFD-BM-252-161-N.jpg","trial_type":"html-keyboard-response","trial_index":13,"time_elapsed":78531,"internal_node_id":"0.0-13.0","condition":1,"key_mapping":2,"test_mode":false,"subject_id":"","study_id":"","session_id":"","timed_out":false,"correct_response":"m","correct":true},{"rt":null,"stimulus":"<span class=\"fixation-cross\">+</span>","response":null,"phase":"study","trial_part":"fixation","trial_type":"html-keyboard-response","trial_index":14,"time_elapsed":80543,"internal_node_id":"0.0-14.0","condition":1,"key_mapping":2,"test_mode":false,"subject_id":"","study_id":"","session_id":""},{"rt":1601,"stimulus":"<div class=\"flanker-display\" style=\"gap: 0px;\"><img src=\"materials/cfd/Images/CFD/BF-037/CFD-BF-037-013-A.jpg\" class=\"face-image\" style=\"width: 200px;\" /><img src=\"materials/cfd/Images/CFD/BM-218/CFD-BM-218-132-N.jpg\" class=\"face-image\" style=\"width: 200px;\" /><img src=\"materials/cfd/Images/CFD/BF-037/CFD-BF-037-013-A.jpg\" class=\"face-image\" style=\"width: 200px;\" /></div>","response":"z","phase":"study","block":0,"target_id":"BM-218","target_gender":"M","target_race":"B","target_filename":"materials/cfd/Images/CFD/BM-218/CFD-BM-218-132-N.jpg","flanker_id":"BF-037","flanker_gender":"F","flanker_race":"B","flanker_emotion":"angry","flanker_filename":"materials/cfd/Images/CFD/BF-037/CFD-BF-037-013-A.jpg","trial_type":"html-keyboard-response","trial_index":15,"time_elapsed":83548,"internal_node_id":"0.0-15.0","condition":1,"key_mapping":2,"test_mode":false,"subject_id":"","study_id":"","session_id":"","timed_out":false,"correct_response":"z","correct":true},{"rt":null,"stimulus":"<span class=\"fixation-cross\">+</span>","response":null,"phase":"study","trial_part":"fixation","trial_type":"html-keyboard-response","trial_index":16,"time_elapsed":85549,"internal_node_id":"0.0-16.0","condition":1,"key_mapping":2,"test_mode":false,"subject_id":"","study_id":"","session_id":""},{"rt":1828,"stimulus":"<div class=\"flanker-display\" style=\"gap: 0px;\"><img src=\"materials/cfd/Images/CFD/BM-207/CFD-BM-207-024-N.jpg\" class=\"face-image\" style=\"width: 200px;\" /><img src=\"materials/cfd/Images/CFD/WM-211/CFD-WM-211-054-N.jpg\" class=\"face-image\" style=\"width: 200px;\" /><img src=\"materials/cfd/Images/CFD/BM-207/CFD-BM-207-024-N.jpg\" class=\"face-image\" style=\"width: 200px;\" /></div>","response":"z","phase":"study","block":0,"target_id":"WM-211","target_gender":"M","target_race":"W","target_filename":"materials/cfd/Images/CFD/WM-211/CFD-WM-211-054-N.jpg","flanker_id":"BM-207","flanker_gender":"M","flanker_race":"B","flanker_emotion":"neutral","flanker_filename":"materials/cfd/Images/CFD/BM-207/CFD-BM-207-024-N.jpg","trial_type":"html-keyboard-response","trial_index":17,"time_elapsed":88550,"internal_node_id":"0.0-17.0","condition":1,"key_mapping":2,"test_mode":false,"subject_id":"","study_id":"","session_id":"","timed_out":false,"correct_response":"z","correct":true},{"rt":null,"stimulus":"<span class=\"fixation-cross\">+</span>","response":null,"phase":"study","trial_part":"fixation","trial_type":"html-keyboard-response","trial_index":18,"time_elapsed":90563,"internal_node_id":"0.0-18.0","condition":1,"key_mapping":2,"test_mode":false,"subject_id":"","study_id":"","session_id":""},{"rt":1223,"stimulus":"<div class=\"flanker-display\" style=\"gap: 0px;\"><img src=\"materials/cfd/Images/CFD/WF-024/CFD-WF-024-006-HO.jpg\" class=\"face-image\" style=\"width: 200px;\" /><img src=\"materials/cfd/Images/CFD/LM-249/CFD-LM-249-001-N.jpg\" class=\"face-image\" style=\"width: 200px;\" /><img src=\"materials/cfd/Images/CFD/WF-024/CFD-WF-024-006-HO.jpg\" class=\"face-image\" style=\"width: 200px;\" /></div>","response":"m","phase":"study","block":0,"target_id":"LM-249","target_gender":"M","target_race":"L","target_filename":"materials/cfd/Images/CFD/LM-249/CFD-LM-249-001-N.jpg","flanker_id":"WF-024","flanker_gender":"F","flanker_race":"W","flanker_emotion":"happy","flanker_filename":"materials/cfd/Images/CFD/WF-024/CFD-WF-024-006-HO.jpg","trial_type":"html-keyboard-response","trial_index":19,"time_elapsed":93564,"internal_node_id":"0.0-19.0","condition":1,"key_mapping":2,"test_mode":false,"subject_id":"","study_id":"","session_id":"","timed_out":false,"correct_response":"z","correct":false},{"rt":null,"stimulus":"<span class=\"fixation-cross\">+</span>","response":null,"phase":"study","trial_part":"fixation","trial_type":"html-keyboard-response","trial_index":20,"time_elapsed":95578,"internal_node_id":"0.0-20.0","condition":1,"key_mapping":2,"test_mode":false,"subject_id":"","study_id":"","session_id":""},{"rt":816,"stimulus":"<div class=\"flanker-display\" style=\"gap: 0px;\"><img src=\"materials/cfd/Images/CFD/WM-017/CFD-WM-017-011-A.jpg\" class=\"face-image\" style=\"width: 200px;\" /><img src=\"materials/cfd/Images/CFD/AM-212/CFD-AM-212-050-N.jpg\" class=\"face-image\" style=\"width: 200px;\" /><img src=\"materials/cfd/Images/CFD/WM-017/CFD-WM-017-011-A.jpg\" class=\"face-image\" style=\"width: 200px;\" /></div>","response":"z","phase":"study","block":0,"target_id":"AM-212","target_gender":"M","target_race":"A","target_filename":"materials/cfd/Images/CFD/AM-212/CFD-AM-212-050-N.jpg","flanker_id":"WM-017","flanker_gender":"M","flanker_race":"W","flanker_emotion":"angry","flanker_filename":"materials/cfd/Images/CFD/WM-017/CFD-WM-017-011-A.jpg","trial_type":"html-keyboard-response","trial_index":21,"time_elapsed":98580,"internal_node_id":"0.0-21.0","condition":1,"key_mapping":2,"test_mode":false,"subject_id":"","study_id":"","session_id":"","timed_out":false,"correct_response":"z","correct":true},{"rt":null,"stimulus":"<span class=\"fixation-cross\">+</span>","response":null,"phase":"study","trial_part":"fixation","trial_type":"html-keyboard-response","trial_index":22,"time_elapsed":100589,"internal_node_id":"0.0-22.0","condition":1,"key_mapping":2,"test_mode":false,"subject_id":"","study_id":"","session_id":""},{"rt":944,"stimulus":"<div class=\"flanker-display\" style=\"gap: 0px;\"><img src=\"materials/cfd/Images/CFD/WF-221/CFD-WF-221-005-N.jpg\" class=\"face-image\" style=\"width: 200px;\" /><img src=\"materials/cfd/Images/CFD/BF-230/CFD-BF-230-189-N.jpg\" class=\"face-image\" style=\"width: 200px;\" /><img src=\"materials/cfd/Images/CFD/WF-221/CFD-WF-221-005-N.jpg\" class=\"face-image\" style=\"width: 200px;\" /></div>","response":"m","phase":"study","block":0,"target_id":"BF-230","target_gender":"F","target_race":"B","target_filename":"materials/cfd/Images/CFD/BF-230/CFD-BF-230-189-N.jpg","flanker_id":"WF-221","flanker_gender":"F","flanker_race":"W","flanker_emotion":"neutral","flanker_filename":"materials/cfd/Images/CFD/WF-221/CFD-WF-221-005-N.jpg","trial_type":"html-keyboard-response","trial_index":23,"time_elapsed":103605,"internal_node_id":"0.0-23.0","condition":1,"key_mapping":2,"test_mode":false,"subject_id":"","study_id":"","session_id":"","timed_out":false,"correct_response":"m","correct":true},{"rt":null,"stimulus":"<span class=\"fixation-cross\">+</span>","response":null,"phase":"study","trial_part":"fixation","trial_type":"html-keyboard-response","trial_index":24,"time_elapsed":105610,"internal_node_id":"0.0-24.0","condition":1,"key_mapping":2,"test_mode":false,"subject_id":"","study_id":"","session_id":""},{"rt":1375,"stimulus":"<div class=\"flanker-display\" style=\"gap: 0px;\"><img src=\"materials/cfd/Images/CFD/WM-036/CFD-WM-036-034-HO.jpg\" class=\"face-image\" style=\"width: 200px;\" /><img src=\"materials/cfd/Images/CFD/BM-240/CFD-BM-240-207-N.jpg\" class=\"face-image\" style=\"width: 200px;\" /><img src=\"materials/cfd/Images/CFD/WM-036/CFD-WM-036-034-HO.jpg\" class=\"face-image\" style=\"width: 200px;\" /></div>","response":"z","phase":"study","block":0,"target_id":"BM-240","target_gender":"M","target_race":"B","target_filename":"materials/cfd/Images/CFD/BM-240/CFD-BM-240-207-N.jpg","flanker_id":"WM-036","flanker_gender":"M","flanker_race":"W","flanker_emotion":"happy","flanker_filename":"materials/cfd/Images/CFD/WM-036/CFD-WM-036-034-HO.jpg","trial_type":"html-keyboard-response","trial_index":25,"time_elapsed":108614,"internal_node_id":"0.0-25.0","condition":1,"key_mapping":2,"test_mode":false,"subject_id":"","study_id":"","session_id":"","timed_out":false,"correct_response":"z","correct":true},{"rt":null,"stimulus":"<span class=\"fixation-cross\">+</span>","response":null,"phase":"study","trial_part":"fixation","trial_type":"html-keyboard-response","trial_index":26,"time_elapsed":110622,"internal_node_id":"0.0-26.0","condition":1,"key_mapping":2,"test_mode":false,"subject_id":"","study_id":"","session_id":""},{"rt":849,"stimulus":"<div class=\"flanker-display\" style=\"gap: 0px;\"><img src=\"materials/cfd/Images/CFD/BF-021/CFD-BF-021-014-HO.jpg\" class=\"face-image\" style=\"width: 200px;\" /><img src=\"materials/cfd/Images/CFD/WF-034/CFD-WF-034-006-N.jpg\" class=\"face-image\" style=\"width: 200px;\" /><img src=\"materials/cfd/Images/CFD/BF-021/CFD-BF-021-014-HO.jpg\" class=\"face-image\" style=\"width: 200px;\" /></div>","response":"m","phase":"study","block":0,"target_id":"WF-034","target_gender":"F","target_race":"W","target_filename":"materials/cfd/Images/CFD/WF-034/CFD-WF-034-006-N.jpg","flanker_id":"BF-021","flanker_gender":"F","flanker_race":"B","flanker_emotion":"happy","flanker_filename":"materials/cfd/Images/CFD/BF-021/CFD-BF-021-014-HO.jpg","trial_type":"html-keyboard-response","trial_index":27,"time_elapsed":113638,"internal_node_id":"0.0-27.0","condition":1,"key_mapping":2,"test_mode":false,"subject_id":"","study_id":"","session_id":"","timed_out":false,"correct_response":"m","correct":true},{"rt":null,"stimulus":"<span class=\"fixation-cross\">+</span>","response":null,"phase":"study","trial_part":"fixation","trial_type":"html-keyboard-response","trial_index":28,"time_elapsed":115650,"internal_node_id":"0.0-28.0","condition":1,"key_mapping":2,"test_mode":false,"subject_id":"","study_id":"","session_id":""},{"rt":978,"stimulus":"<div class=\"flanker-display\" style=\"gap: 0px;\"><img src=\"materials/cfd/Images/CFD/WM-015/CFD-WM-015-005-HO.jpg\" class=\"face-image\" style=\"width: 200px;\" /><img src=\"materials/cfd/Images/CFD/BF-036/CFD-BF-036-027-N.jpg\" class=\"face-image\" style=\"width: 200px;\" /><img src=\"materials/cfd/Images/CFD/WM-015/CFD-WM-015-005-HO.jpg\" class=\"face-image\" style=\"width: 200px;\" /></div>","response":"m","phase":"study","block":0,"target_id":"BF-036","target_gender":"F","target_race":"B","target_filename":"materials/cfd/Images/CFD/BF-036/CFD-BF-036-027-N.jpg","flanker_id":"WM-015","flanker_gender":"M","flanker_race":"W","flanker_emotion":"happy","flanker_filename":"materials/cfd/Images/CFD/WM-015/CFD-WM-015-005-HO.jpg","trial_type":"html-keyboard-response","trial_index":29,"time_elapsed":118662,"internal_node_id":"0.0-29.0","condition":1,"key_mapping":2,"test_mode":false,"subject_id":"","study_id":"","session_id":"","timed_out":false,"correct_response":"m","correct":true},{"rt":null,"stimulus":"<span class=\"fixation-cross\">+</span>","response":null,"phase":"study","trial_part":"fixation","trial_type":"html-keyboard-response","trial_index":30,"time_elapsed":120666,"internal_node_id":"0.0-30.0","condition":1,"key_mapping":2,"test_mode":false,"subject_id":"","study_id":"","session_id":""},{"rt":1212,"stimulus":"<div class=\"flanker-display\" style=\"gap: 0px;\"><img src=\"materials/cfd/Images/CFD/WF-010/CFD-WF-010-014-A.jpg\" class=\"face-image\" style=\"width: 200px;\" /><img src=\"materials/cfd/Images/CFD/WF-223/CFD-WF-223-133-N.jpg\" class=\"face-image\" style=\"width: 200px;\" /><img src=\"materials/cfd/Images/CFD/WF-010/CFD-WF-010-014-A.jpg\" class=\"face-image\" style=\"width: 200px;\" /></div>","response":"m","phase":"study","block":0,"target_id":"WF-223","target_gender":"F","target_race":"W","target_filename":"materials/cfd/Images/CFD/WF-223/CFD-WF-223-133-N.jpg","flanker_id":"WF-010","flanker_gender":"F","flanker_race":"W","flanker_emotion":"angry","flanker_filename":"materials/cfd/Images/CFD/WF-010/CFD-WF-010-014-A.jpg","trial_type":"html-keyboard-response","trial_index":31,"time_elapsed":123676,"internal_node_id":"0.0-31.0","condition":1,"key_mapping":2,"test_mode":false,"subject_id":"","study_id":"","session_id":"","timed_out":false,"correct_response":"m","correct":true},{"rt":null,"stimulus":"<span class=\"fixation-cross\">+</span>","response":null,"phase":"study","trial_part":"fixation","trial_type":"html-keyboard-response","trial_index":32,"time_elapsed":125688,"internal_node_id":"0.0-32.0","condition":1,"key_mapping":2,"test_mode":false,"subject_id":"","study_id":"","session_id":""},{"rt":1154,"stimulus":"<div class=\"flanker-display\" style=\"gap: 0px;\"><img src=\"materials/cfd/Images/CFD/BF-215/CFD-BF-215-177-N.jpg\" class=\"face-image\" style=\"width: 200px;\" /><img src=\"materials/cfd/Images/CFD/WM-257/CFD-WM-257-161-N.jpg\" class=\"face-image\" style=\"width: 200px;\" /><img src=\"materials/cfd/Images/CFD/BF-215/CFD-BF-215-177-N.jpg\" class=\"face-image\" style=\"width: 200px;\" /></div>","response":"z","phase":"study","block":0,"target_id":"WM-257","target_gender":"M","target_race":"W","target_filename":"materials/cfd/Images/CFD/WM-257/CFD-WM-257-161-N.jpg","flanker_id":"BF-215","flanker_gender":"F","flanker_race":"B","flanker_emotion":"neutral","flanker_filename":"materials/cfd/Images/CFD/BF-215/CFD-BF-215-177-N.jpg","trial_type":"html-keyboard-response","trial_index":33,"time_elapsed":128694,"internal_node_id":"0.0-33.0","condition":1,"key_mapping":2,"test_mode":false,"subject_id":"","study_id":"","session_id":"","timed_out":false,"correct_response":"z","correct":true},{"rt":null,"stimulus":"<span class=\"fixation-cross\">+</span>","response":null,"phase":"study","trial_part":"fixation","trial_type":"html-keyboard-response","trial_index":34,"time_elapsed":130704,"internal_node_id":"0.0-34.0","condition":1,"key_mapping":2,"test_mode":false,"subject_id":"","study_id":"","session_id":""},{"rt":1463,"stimulus":"<div class=\"flanker-display\" style=\"gap: 0px;\"><img src=\"materials/cfd/Images/CFD/BM-209/CFD-BM-209-088-N.jpg\" class=\"face-image\" style=\"width: 200px;\" /><img src=\"materials/cfd/Images/CFD/WM-020/CFD-WM-020-001-N.jpg\" class=\"face-image\" style=\"width: 200px;\" /><img src=\"materials/cfd/Images/CFD/BM-209/CFD-BM-209-088-N.jpg\" class=\"face-image\" style=\"width: 200px;\" /></div>","response":"z","phase":"study","block":0,"target_id":"WM-020","target_gender":"M","target_race":"W","target_filename":"materials/cfd/Images/CFD/WM-020/CFD-WM-020-001-N.jpg","flanker_id":"BM-209","flanker_gender":"M","flanker_race":"B","flanker_emotion":"neutral","flanker_filename":"materials/cfd/Images/CFD/BM-209/CFD-BM-209-088-N.jpg","trial_type":"html-keyboard-response","trial_index":35,"time_elapsed":133719,"internal_node_id":"0.0-35.0","condition":1,"key_mapping":2,"test_mode":false,"subject_id":"","study_id":"","session_id":"","timed_out":false,"correct_response":"z","correct":true},{"rt":null,"stimulus":"<span class=\"fixation-cross\">+</span>","response":null,"phase":"study","trial_part":"fixation","trial_type":"html-keyboard-response","trial_index":36,"time_elapsed":135733,"internal_node_id":"0.0-36.0","condition":1,"key_mapping":2,"test_mode":false,"subject_id":"","study_id":"","session_id":""},{"rt":1448,"stimulus":"<div class=\"flanker-display\" style=\"gap: 0px;\"><img src=\"materials/cfd/Images/CFD/WM-024/CFD-WM-024-003-HO.jpg\" class=\"face-image\" style=\"width: 200px;\" /><img src=\"materials/cfd/Images/CFD/LM-248/CFD-LM-248-089-N.jpg\" class=\"face-image\" style=\"width: 200px;\" /><img src=\"materials/cfd/Images/CFD/WM-024/CFD-WM-024-003-HO.jpg\" class=\"face-image\" style=\"width: 200px;\" /></div>","response":"z","phase":"study","block":0,"target_id":"LM-248","target_gender":"M","target_race":"L","target_filename":"materials/cfd/Images/CFD/LM-248/CFD-LM-248-089-N.jpg","flanker_id":"WM-024","flanker_gender":"M","flanker_race":"W","flanker_emotion":"happy","flanker_filename":"materials/cfd/Images/CFD/WM-024/CFD-WM-024-003-HO.jpg","trial_type":"html-keyboard-response","trial_index":37,"time_elapsed":138748,"internal_node_id":"0.0-37.0","condition":1,"key_mapping":2,"test_mode":false,"subject_id":"","study_id":"","session_id":"","timed_out":false,"correct_response":"z","correct":true},{"rt":null,"stimulus":"<span class=\"fixation-cross\">+</span>","response":null,"phase":"study","trial_part":"fixation","trial_type":"html-keyboard-response","trial_index":38,"time_elapsed":140762,"internal_node_id":"0.0-38.0","condition":1,"key_mapping":2,"test_mode":false,"subject_id":"","study_id":"","session_id":""},{"rt":1075,"stimulus":"<div class=\"flanker-display\" style=\"gap: 0px;\"><img src=\"materials/cfd/Images/CFD/WM-016/CFD-WM-016-002-HO.jpg\" class=\"face-image\" style=\"width: 200px;\" /><img src=\"materials/cfd/Images/CFD/LM-209/CFD-LM-209-111-N.jpg\" class=\"face-image\" style=\"width: 200px;\" /><img src=\"materials/cfd/Images/CFD/WM-016/CFD-WM-016-002-HO.jpg\" class=\"face-image\" style=\"width: 200px;\" /></div>","response":"z","phase":"study","block":0,"target_id":"LM-209","target_gender":"M","target_race":"L","target_filename":"materials/cfd/Images/CFD/LM-209/CFD-LM-209-111-N.jpg","flanker_id":"WM-016","flanker_gender":"M","flanker_race":"W","flanker_emotion":"happy","flanker_filename":"materials/cfd/Images/CFD/WM-016/CFD-WM-016-002-HO.jpg","trial_type":"html-keyboard-response","trial_index":39,"time_elapsed":143774,"internal_node_id":"0.0-39.0","condition":1,"key_mapping":2,"test_mode":false,"subject_id":"","study_id":"","session_id":"","timed_out":false,"correct_response":"z","correct":true},{"rt":null,"stimulus":"<span class=\"fixation-cross\">+</span>","response":null,"phase":"study","trial_part":"fixation","trial_type":"html-keyboard-response","trial_index":40,"time_elapsed":145781,"internal_node_id":"0.0-40.0","condition":1,"key_mapping":2,"test_mode":false,"subject_id":"","study_id":"","session_id":""},{"rt":712,"stimulus":"<div class=\"flanker-display\" style=\"gap: 0px;\"><img src=\"materials/cfd/Images/CFD/BM-031/CFD-BM-031-004-HO.jpg\" class=\"face-image\" style=\"width: 200px;\" /><img src=\"materials/cfd/Images/CFD/BM-213/CFD-BM-213-134-N.jpg\" class=\"face-image\" style=\"width: 200px;\" /><img src=\"materials/cfd/Images/CFD/BM-031/CFD-BM-031-004-HO.jpg\" class=\"face-image\" style=\"width: 200px;\" /></div>","response":"z","phase":"study","block":0,"target_id":"BM-213","target_gender":"M","target_race":"B","target_filename":"materials/cfd/Images/CFD/BM-213/CFD-BM-213-134-N.jpg","flanker_id":"BM-031","flanker_gender":"M","flanker_race":"B","flanker_emotion":"happy","flanker_filename":"materials/cfd/Images/CFD/BM-031/CFD-BM-031-004-HO.jpg","trial_type":"html-keyboard-response","trial_index":41,"time_elapsed":148797,"internal_node_id":"0.0-41.0","condition":1,"key_mapping":2,"test_mode":false,"subject_id":"","study_id":"","session_id":"","timed_out":false,"correct_response":"z","correct":true},{"rt":null,"stimulus":"<span class=\"fixation-cross\">+</span>","response":null,"phase":"study","trial_part":"fixation","trial_type":"html-keyboard-response","trial_index":42,"time_elapsed":150810,"internal_node_id":"0.0-42.0","condition":1,"key_mapping":2,"test_mode":false,"subject_id":"","study_id":"","session_id":""},{"rt":879,"stimulus":"<div class=\"flanker-display\" style=\"gap: 0px;\"><img src=\"materials/cfd/Images/CFD/WF-251/CFD-WF-251-014-N.jpg\" class=\"face-image\" style=\"width: 200px;\" /><img src=\"materials/cfd/Images/CFD/BF-242/CFD-BF-242-154-N.jpg\" class=\"face-image\" style=\"width: 200px;\" /><img src=\"materials/cfd/Images/CFD/WF-251/CFD-WF-251-014-N.jpg\" class=\"face-image\" style=\"width: 200px;\" /></div>","response":"m","phase":"study","block":0,"target_id":"BF-242","target_gender":"F","target_race":"B","target_filename":"materials/cfd/Images/CFD/BF-242/CFD-BF-242-154-N.jpg","flanker_id":"WF-251","flanker_gender":"F","flanker_race":"W","flanker_emotion":"neutral","flanker_filename":"materials/cfd/Images/CFD/WF-251/CFD-WF-251-014-N.jpg","trial_type":"html-keyboard-response","trial_index":43,"time_elapsed":153827,"internal_node_id":"0.0-43.0","condition":1,"key_mapping":2,"test_mode":false,"subject_id":"","study_id":"","session_id":"","timed_out":false,"correct_response":"m","correct":true},{"rt":null,"stimulus":"<span class=\"fixation-cross\">+</span>","response":null,"phase":"study","trial_part":"fixation","trial_type":"html-keyboard-response","trial_index":44,"time_elapsed":155840,"internal_node_id":"0.0-44.0","condition":1,"key_mapping":2,"test_mode":false,"subject_id":"","study_id":"","session_id":""},{"rt":1179,"stimulus":"<div class=\"flanker-display\" style=\"gap: 0px;\"><img src=\"materials/cfd/Images/CFD/BF-035/CFD-BF-035-009-A.jpg\" class=\"face-image\" style=\"width: 200px;\" /><img src=\"materials/cfd/Images/CFD/LM-240/CFD-LM-240-013-N.jpg\" class=\"face-image\" style=\"width: 200px;\" /><img src=\"materials/cfd/Images/CFD/BF-035/CFD-BF-035-009-A.jpg\" class=\"face-image\" style=\"width: 200px;\" /></div>","response":"z","phase":"study","block":0,"target_id":"LM-240","target_gender":"M","target_race":"L","target_filename":"materials/cfd/Images/CFD/LM-240/CFD-LM-240-013-N.jpg","flanker_id":"BF-035","flanker_gender":"F","flanker_race":"B","flanker_emotion":"angry","flanker_filename":"materials/cfd/Images/CFD/BF-035/CFD-BF-035-009-A.jpg","trial_type":"html-keyboard-response","trial_index":45,"time_elapsed":158856,"internal_node_id":"0.0-45.0","condition":1,"key_mapping":2,"test_mode":false,"subject_id":"","study_id":"","session_id":"","timed_out":false,"correct_response":"z","correct":true},{"rt":null,"stimulus":"<span class=\"fixation-cross\">+</span>","response":null,"phase":"study","trial_part":"fixation","trial_type":"html-keyboard-response","trial_index":46,"time_elapsed":160857,"internal_node_id":"0.0-46.0","condition":1,"key_mapping":2,"test_mode":false,"subject_id":"","study_id":"","session_id":""},{"rt":1143,"stimulus":"<div class=\"flanker-display\" style=\"gap: 0px;\"><img src=\"materials/cfd/Images/CFD/BM-043/CFD-BM-043-076-HO.jpg\" class=\"face-image\" style=\"width: 200px;\" /><img src=\"materials/cfd/Images/CFD/WF-005/CFD-WF-005-010-N.jpg\" class=\"face-image\" style=\"width: 200px;\" /><img src=\"materials/cfd/Images/CFD/BM-043/CFD-BM-043-076-HO.jpg\" class=\"face-image\" style=\"width: 200px;\" /></div>","response":"m","phase":"study","block":0,"target_id":"WF-005","target_gender":"F","target_race":"W","target_filename":"materials/cfd/Images/CFD/WF-005/CFD-WF-005-010-N.jpg","flanker_id":"BM-043","flanker_gender":"M","flanker_race":"B","flanker_emotion":"happy","flanker_filename":"materials/cfd/Images/CFD/BM-043/CFD-BM-043-076-HO.jpg","trial_type":"html-keyboard-response","trial_index":47,"time_elapsed":163861,"internal_node_id":"0.0-47.0","condition":1,"key_mapping":2,"test_mode":false,"subject_id":"","study_id":"","session_id":"","timed_out":false,"correct_response":"m","correct":true},{"rt":null,"stimulus":"<span class=\"fixation-cross\">+</span>","response":null,"phase":"study","trial_part":"fixation","trial_type":"html-keyboard-response","trial_index":48,"time_elapsed":165871,"internal_node_id":"0.0-48.0","condition":1,"key_mapping":2,"test_mode":false,"subject_id":"","study_id":"","session_id":""},{"rt":989,"stimulus":"<div class=\"flanker-display\" style=\"gap: 0px;\"><img src=\"materials/cfd/Images/CFD/BF-244/CFD-BF-244-231-N.jpg\" class=\"face-image\" style=\"width: 200px;\" /><img src=\"materials/cfd/Images/CFD/AF-232/CFD-AF-232-078-N.jpg\" class=\"face-image\" style=\"width: 200px;\" /><img src=\"materials/cfd/Images/CFD/BF-244/CFD-BF-244-231-N.jpg\" class=\"face-image\" style=\"width: 200px;\" /></div>","response":"m","phase":"study","block":0,"target_id":"AF-232","target_gender":"F","target_race":"A","target_filename":"materials/cfd/Images/CFD/AF-232/CFD-AF-232-078-N.jpg","flanker_id":"BF-244","flanker_gender":"F","flanker_race":"B","flanker_emotion":"neutral","flanker_filename":"materials/cfd/Images/CFD/BF-244/CFD-BF-244-231-N.jpg","trial_type":"html-keyboard-response","trial_index":49,"time_elapsed":168874,"internal_node_id":"0.0-49.0","condition":1,"key_mapping":2,"test_mode":false,"subject_id":"","study_id":"","session_id":"","timed_out":false,"correct_response":"m","correct":true},{"rt":null,"stimulus":"<span class=\"fixation-cross\">+</span>","response":null,"phase":"study","trial_part":"fixation","trial_type":"html-keyboard-response","trial_index":50,"time_elapsed":170885,"internal_node_id":"0.0-50.0","condition":1,"key_mapping":2,"test_mode":false,"subject_id":"","study_id":"","session_id":""},{"rt":807,"stimulus":"<div class=\"flanker-display\" style=\"gap: 0px;\"><img src=\"materials/cfd/Images/CFD/WF-030/CFD-WF-030-003-HO.jpg\" class=\"face-image\" style=\"width: 200px;\" /><img src=\"materials/cfd/Images/CFD/WF-237/CFD-WF-237-067-N.jpg\" class=\"face-image\" style=\"width: 200px;\" /><img src=\"materials/cfd/Images/CFD/WF-030/CFD-WF-030-003-HO.jpg\" class=\"face-image\" style=\"width: 200px;\" /></div>","response":"m","phase":"study","block":0,"target_id":"WF-237","target_gender":"F","target_race":"W","target_filename":"materials/cfd/Images/CFD/WF-237/CFD-WF-237-067-N.jpg","flanker_id":"WF-030","flanker_gender":"F","flanker_race":"W","flanker_emotion":"happy","flanker_filename":"materials/cfd/Images/CFD/WF-030/CFD-WF-030-003-HO.jpg","trial_type":"html-keyboard-response","trial_index":51,"time_elapsed":173892,"internal_node_id":"0.0-51.0","condition":1,"key_mapping":2,"test_mode":false,"subject_id":"","study_id":"","session_id":"","timed_out":false,"correct_response":"m","correct":true},{"rt":null,"stimulus":"<span class=\"fixation-cross\">+</span>","response":null,"phase":"study","trial_part":"fixation","trial_type":"html-keyboard-response","trial_index":52,"time_elapsed":175908,"internal_node_id":"0.0-52.0","condition":1,"key_mapping":2,"test_mode":false,"subject_id":"","study_id":"","session_id":""},{"rt":1157,"stimulus":"<div class=\"flanker-display\" style=\"gap: 0px;\"><img src=\"materials/cfd/Images/CFD/BF-220/CFD-BF-220-161-N.jpg\" class=\"face-image\" style=\"width: 200px;\" /><img src=\"materials/cfd/Images/CFD/LM-234/CFD-LM-234-176-N.jpg\" class=\"face-image\" style=\"width: 200px;\" /><img src=\"materials/cfd/Images/CFD/BF-220/CFD-BF-220-161-N.jpg\" class=\"face-image\" style=\"width: 200px;\" /></div>","response":"z","phase":"study","block":0,"target_id":"LM-234","target_gender":"M","target_race":"L","target_filename":"materials/cfd/Images/CFD/LM-234/CFD-LM-234-176-N.jpg","flanker_id":"BF-220","flanker_gender":"F","flanker_race":"B","flanker_emotion":"neutral","flanker_filename":"materials/cfd/Images/CFD/BF-220/CFD-BF-220-161-N.jpg","trial_type":"html-keyboard-response","trial_index":53,"time_elapsed":178921,"internal_node_id":"0.0-53.0","condition":1,"key_mapping":2,"test_mode":false,"subject_id":"","study_id":"","session_id":"","timed_out":false,"correct_response":"z","correct":true},{"rt":null,"stimulus":"<span class=\"fixation-cross\">+</span>","response":null,"phase":"study","trial_part":"fixation","trial_type":"html-keyboard-response","trial_index":54,"time_elapsed":180924,"internal_node_id":"0.0-54.0","condition":1,"key_mapping":2,"test_mode":false,"subject_id":"","study_id":"","session_id":""},{"rt":1014,"stimulus":"<div class=\"flanker-display\" style=\"gap: 0px;\"><img src=\"materials/cfd/Images/CFD/BM-239/CFD-BM-239-136-N.jpg\" class=\"face-image\" style=\"width: 200px;\" /><img src=\"materials/cfd/Images/CFD/BF-255/CFD-BF-255-140-N.jpg\" class=\"face-image\" style=\"width: 200px;\" /><img src=\"materials/cfd/Images/CFD/BM-239/CFD-BM-239-136-N.jpg\" class=\"face-image\" style=\"width: 200px;\" /></div>","response":"m","phase":"study","block":0,"target_id":"BF-255","target_gender":"F","target_race":"B","target_filename":"materials/cfd/Images/CFD/BF-255/CFD-BF-255-140-N.jpg","flanker_id":"BM-239","flanker_gender":"M","flanker_race":"B","flanker_emotion":"neutral","flanker_filename":"materials/cfd/Images/CFD/BM-239/CFD-BM-239-136-N.jpg","trial_type":"html-keyboard-response","trial_index":55,"time_elapsed":183925,"internal_node_id":"0.0-55.0","condition":1,"key_mapping":2,"test_mode":false,"subject_id":"","study_id":"","session_id":"","timed_out":false,"correct_response":"m","correct":true},{"rt":null,"stimulus":"<span class=\"fixation-cross\">+</span>","response":null,"phase":"study","trial_part":"fixation","trial_type":"html-keyboard-response","trial_index":56,"time_elapsed":185938,"internal_node_id":"0.0-56.0","condition":1,"key_mapping":2,"test_mode":false,"subject_id":"","study_id":"","session_id":""},{"rt":936,"stimulus":"<div class=\"flanker-display\" style=\"gap: 0px;\"><img src=\"materials/cfd/Images/CFD/BF-016/CFD-BF-016-020-A.jpg\" class=\"face-image\" style=\"width: 200px;\" /><img src=\"materials/cfd/Images/CFD/BF-246/CFD-BF-246-170-N.jpg\" class=\"face-image\" style=\"width: 200px;\" /><img src=\"materials/cfd/Images/CFD/BF-016/CFD-BF-016-020-A.jpg\" class=\"face-image\" style=\"width: 200px;\" /></div>","response":"m","phase":"study","block":0,"target_id":"BF-246","target_gender":"F","target_race":"B","target_filename":"materials/cfd/Images/CFD/BF-246/CFD-BF-246-170-N.jpg","flanker_id":"BF-016","flanker_gender":"F","flanker_race":"B","flanker_emotion":"angry","flanker_filename":"materials/cfd/Images/CFD/BF-016/CFD-BF-016-020-A.jpg","trial_type":"html-keyboard-response","trial_index":57,"time_elapsed":188954,"internal_node_id":"0.0-57.0","condition":1,"key_mapping":2,"test_mode":false,"subject_id":"","study_id":"","session_id":"","timed_out":false,"correct_response":"m","correct":true},{"rt":null,"stimulus":"<span class=\"fixation-cross\">+</span>","response":null,"phase":"study","trial_part":"fixation","trial_type":"html-keyboard-response","trial_index":58,"time_elapsed":190967,"internal_node_id":"0.0-58.0","condition":1,"key_mapping":2,"test_mode":false,"subject_id":"","study_id":"","session_id":""},{"rt":934,"stimulus":"<div class=\"flanker-display\" style=\"gap: 0px;\"><img src=\"materials/cfd/Images/CFD/WF-229/CFD-WF-229-004-N.jpg\" class=\"face-image\" style=\"width: 200px;\" /><img src=\"materials/cfd/Images/CFD/BF-221/CFD-BF-221-223-N.jpg\" class=\"face-image\" style=\"width: 200px;\" /><img src=\"materials/cfd/Images/CFD/WF-229/CFD-WF-229-004-N.jpg\" class=\"face-image\" style=\"width: 200px;\" /></div>","response":"m","phase":"study","block":0,"target_id":"BF-221","target_gender":"F","target_race":"B","target_filename":"materials/cfd/Images/CFD/BF-221/CFD-BF-221-223-N.jpg","flanker_id":"WF-229","flanker_gender":"F","flanker_race":"W","flanker_emotion":"neutral","flanker_filename":"materials/cfd/Images/CFD/WF-229/CFD-WF-229-004-N.jpg","trial_type":"html-keyboard-response","trial_index":59,"time_elapsed":193969,"internal_node_id":"0.0-59.0","condition":1,"key_mapping":2,"test_mode":false,"subject_id":"","study_id":"","session_id":"","timed_out":false,"correct_response":"m","correct":true},{"rt":null,"stimulus":"<span class=\"fixation-cross\">+</span>","response":null,"phase":"study","trial_part":"fixation","trial_type":"html-keyboard-response","trial_index":60,"time_elapsed":195969,"internal_node_id":"0.0-60.0","condition":1,"key_mapping":2,"test_mode":false,"subject_id":"","study_id":"","session_id":""},{"rt":1655,"stimulus":"<div class=\"flanker-display\" style=\"gap: 0px;\"><img src=\"materials/cfd/Images/CFD/WM-039/CFD-WM-039-010-A.jpg\" class=\"face-image\" style=\"width: 200px;\" /><img src=\"materials/cfd/Images/CFD/BM-250/CFD-BM-250-170-N.jpg\" class=\"face-image\" style=\"width: 200px;\" /><img src=\"materials/cfd/Images/CFD/WM-039/CFD-WM-039-010-A.jpg\" class=\"face-image\" style=\"width: 200px;\" /></div>","response":"z","phase":"study","block":0,"target_id":"BM-250","target_gender":"M","target_race":"B","target_filename":"materials/cfd/Images/CFD/BM-250/CFD-BM-250-170-N.jpg","flanker_id":"WM-039","flanker_gender":"M","flanker_race":"W","flanker_emotion":"angry","flanker_filename":"materials/cfd/Images/CFD/WM-039/CFD-WM-039-010-A.jpg","trial_type":"html-keyboard-response","trial_index":61,"time_elapsed":198983,"internal_node_id":"0.0-61.0","condition":1,"key_mapping":2,"test_mode":false,"subject_id":"","study_id":"","session_id":"","timed_out":false,"correct_response":"z","correct":true},{"rt":null,"stimulus":"<span class=\"fixation-cross\">+</span>","response":null,"phase":"study","trial_part":"fixation","trial_type":"html-keyboard-response","trial_index":62,"time_elapsed":200984,"internal_node_id":"0.0-62.0","condition":1,"key_mapping":2,"test_mode":false,"subject_id":"","study_id":"","session_id":""},{"rt":1218,"stimulus":"<div class=\"flanker-display\" style=\"gap: 0px;\"><img src=\"materials/cfd/Images/CFD/BM-033/CFD-BM-033-029-HO.jpg\" class=\"face-image\" style=\"width: 200px;\" /><img src=\"materials/cfd/Images/CFD/BF-219/CFD-BF-219-137-N.jpg\" class=\"face-image\" style=\"width: 200px;\" /><img src=\"materials/cfd/Images/CFD/BM-033/CFD-BM-033-029-HO.jpg\" class=\"face-image\" style=\"width: 200px;\" /></div>","response":"m","phase":"study","block":0,"target_id":"BF-219","target_gender":"F","target_race":"B","target_filename":"materials/cfd/Images/CFD/BF-219/CFD-BF-219-137-N.jpg","flanker_id":"BM-033","flanker_gender":"M","flanker_race":"B","flanker_emotion":"happy","flanker_filename":"materials/cfd/Images/CFD/BM-033/CFD-BM-033-029-HO.jpg","trial_type":"html-keyboard-response","trial_index":63,"time_elapsed":204000,"internal_node_id":"0.0-63.0","condition":1,"key_mapping":2,"test_mode":false,"subject_id":"","study_id":"","session_id":"","timed_out":false,"correct_response":"m","correct":true},{"rt":null,"stimulus":"<span class=\"fixation-cross\">+</span>","response":null,"phase":"study","trial_part":"fixation","trial_type":"html-keyboard-response","trial_index":64,"time_elapsed":206015,"internal_node_id":"0.0-64.0","condition":1,"key_mapping":2,"test_mode":false,"subject_id":"","study_id":"","session_id":""},{"rt":838,"stimulus":"<div class=\"flanker-display\" style=\"gap: 0px;\"><img src=\"materials/cfd/Images/CFD/BM-013/CFD-BM-013-004-HO.jpg\" class=\"face-image\" style=\"width: 200px;\" /><img src=\"materials/cfd/Images/CFD/LF-244/CFD-LF-244-096-N.jpg\" class=\"face-image\" style=\"width: 200px;\" /><img src=\"materials/cfd/Images/CFD/BM-013/CFD-BM-013-004-HO.jpg\" class=\"face-image\" style=\"width: 200px;\" /></div>","response":"m","phase":"study","block":0,"target_id":"LF-244","target_gender":"F","target_race":"L","target_filename":"materials/cfd/Images/CFD/LF-244/CFD-LF-244-096-N.jpg","flanker_id":"BM-013","flanker_gender":"M","flanker_race":"B","flanker_emotion":"happy","flanker_filename":"materials/cfd/Images/CFD/BM-013/CFD-BM-013-004-HO.jpg","trial_type":"html-keyboard-response","trial_index":65,"time_elapsed":209031,"internal_node_id":"0.0-65.0","condition":1,"key_mapping":2,"test_mode":false,"subject_id":"","study_id":"","session_id":"","timed_out":false,"correct_response":"m","correct":true},{"rt":null,"stimulus":"<span class=\"fixation-cross\">+</span>","response":null,"phase":"study","trial_part":"fixation","trial_type":"html-keyboard-response","trial_index":66,"time_elapsed":211040,"internal_node_id":"0.0-66.0","condition":1,"key_mapping":2,"test_mode":false,"subject_id":"","study_id":"","session_id":""},{"rt":1205,"stimulus":"<div class=\"flanker-display\" style=\"gap: 0px;\"><img src=\"materials/cfd/Images/CFD/WF-022/CFD-WF-022-019-HO.jpg\" class=\"face-image\" style=\"width: 200px;\" /><img src=\"materials/cfd/Images/CFD/BM-011/CFD-BM-011-016-N.jpg\" class=\"face-image\" style=\"width: 200px;\" /><img src=\"materials/cfd/Images/CFD/WF-022/CFD-WF-022-019-HO.jpg\" class=\"face-image\" style=\"width: 200px;\" /></div>","response":"z","phase":"study","block":0,"target_id":"BM-011","target_gender":"M","target_race":"B","target_filename":"materials/cfd/Images/CFD/BM-011/CFD-BM-011-016-N.jpg","flanker_id":"WF-022","flanker_gender":"F","flanker_race":"W","flanker_emotion":"happy","flanker_filename":"materials/cfd/Images/CFD/WF-022/CFD-WF-022-019-HO.jpg","trial_type":"html-keyboard-response","trial_index":67,"time_elapsed":214048,"internal_node_id":"0.0-67.0","condition":1,"key_mapping":2,"test_mode":false,"subject_id":"","study_id":"","session_id":"","timed_out":false,"correct_response":"z","correct":true},{"rt":null,"stimulus":"<span class=\"fixation-cross\">+</span>","response":null,"phase":"study","trial_part":"fixation","trial_type":"html-keyboard-response","trial_index":68,"time_elapsed":216063,"internal_node_id":"0.0-68.0","condition":1,"key_mapping":2,"test_mode":false,"subject_id":"","study_id":"","session_id":""},{"rt":1851,"stimulus":"<div class=\"flanker-display\" style=\"gap: 0px;\"><img src=\"materials/cfd/Images/CFD/BM-036/CFD-BM-036-037-A.jpg\" class=\"face-image\" style=\"width: 200px;\" /><img src=\"materials/cfd/Images/CFD/LM-251/CFD-LM-251-073-N.jpg\" class=\"face-image\" style=\"width: 200px;\" /><img src=\"materials/cfd/Images/CFD/BM-036/CFD-BM-036-037-A.jpg\" class=\"face-image\" style=\"width: 200px;\" /></div>","response":"z","phase":"study","block":0,"target_id":"LM-251","target_gender":"M","target_race":"L","target_filename":"materials/cfd/Images/CFD/LM-251/CFD-LM-251-073-N.jpg","flanker_id":"BM-036","flanker_gender":"M","flanker_race":"B","flanker_emotion":"angry","flanker_filename":"materials/cfd/Images/CFD/BM-036/CFD-BM-036-037-A.jpg","trial_type":"html-keyboard-response","trial_index":69,"time_elapsed":219075,"internal_node_id":"0.0-69.0","condition":1,"key_mapping":2,"test_mode":false,"subject_id":"","study_id":"","session_id":"","timed_out":false,"correct_response":"z","correct":true},{"rt":null,"stimulus":"<span class=\"fixation-cross\">+</span>","response":null,"phase":"study","trial_part":"fixation","trial_type":"html-keyboard-response","trial_index":70,"time_elapsed":221077,"internal_node_id":"0.0-70.0","condition":1,"key_mapping":2,"test_mode":false,"subject_id":"","study_id":"","session_id":""},{"rt":1092,"stimulus":"<div class=\"flanker-display\" style=\"gap: 0px;\"><img src=\"materials/cfd/Images/CFD/BM-038/CFD-BM-038-001-N.jpg\" class=\"face-image\" style=\"width: 200px;\" /><img src=\"materials/cfd/Images/CFD/LM-219/CFD-LM-219-295-N.jpg\" class=\"face-image\" style=\"width: 200px;\" /><img src=\"materials/cfd/Images/CFD/BM-038/CFD-BM-038-001-N.jpg\" class=\"face-image\" style=\"width: 200px;\" /></div>","response":"z","phase":"study","block":0,"target_id":"LM-219","target_gender":"M","target_race":"L","target_filename":"materials/cfd/Images/CFD/LM-219/CFD-LM-219-295-N.jpg","flanker_id":"BM-038","flanker_gender":"M","flanker_race":"B","flanker_emotion":"neutral","flanker_filename":"materials/cfd/Images/CFD/BM-038/CFD-BM-038-001-N.jpg","trial_type":"html-keyboard-response","trial_index":71,"time_elapsed":224093,"internal_node_id":"0.0-71.0","condition":1,"key_mapping":2,"test_mode":false,"subject_id":"","study_id":"","session_id":"","timed_out":false,"correct_response":"z","correct":true},{"rt":null,"stimulus":"<span class=\"fixation-cross\">+</span>","response":null,"phase":"study","trial_part":"fixation","trial_type":"html-keyboard-response","trial_index":72,"time_elapsed":226109,"internal_node_id":"0.0-72.0","condition":1,"key_mapping":2,"test_mode":false,"subject_id":"","study_id":"","session_id":""},{"rt":1813,"stimulus":"<div class=\"flanker-display\" style=\"gap: 0px;\"><img src=\"materials/cfd/Images/CFD/BM-229/CFD-BM-229-209-N.jpg\" class=\"face-image\" style=\"width: 200px;\" /><img src=\"materials/cfd/Images/CFD/BF-003/CFD-BF-003-003-N.jpg\" class=\"face-image\" style=\"width: 200px;\" /><img src=\"materials/cfd/Images/CFD/BM-229/CFD-BM-229-209-N.jpg\" class=\"face-image\" style=\"width: 200px;\" /></div>","response":"m","phase":"study","block":0,"target_id":"BF-003","target_gender":"F","target_race":"B","target_filename":"materials/cfd/Images/CFD/BF-003/CFD-BF-003-003-N.jpg","flanker_id":"BM-229","flanker_gender":"M","flanker_race":"B","flanker_emotion":"neutral","flanker_filename":"materials/cfd/Images/CFD/BM-229/CFD-BM-229-209-N.jpg","trial_type":"html-keyboard-response","trial_index":73,"time_elapsed":229124,"internal_node_id":"0.0-73.0","condition":1,"key_mapping":2,"test_mode":false,"subject_id":"","study_id":"","session_id":"","timed_out":false,"correct_response":"m","correct":true},{"rt":null,"stimulus":"<span class=\"fixation-cross\">+</span>","response":null,"phase":"study","trial_part":"fixation","trial_type":"html-keyboard-response","trial_index":74,"time_elapsed":231126,"internal_node_id":"0.0-74.0","condition":1,"key_mapping":2,"test_mode":false,"subject_id":"","study_id":"","session_id":""},{"rt":1457,"stimulus":"<div class=\"flanker-display\" style=\"gap: 0px;\"><img src=\"materials/cfd/Images/CFD/BM-001/CFD-BM-001-022-A.jpg\" class=\"face-image\" style=\"width: 200px;\" /><img src=\"materials/cfd/Images/CFD/AM-211/CFD-AM-211-052-N.jpg\" class=\"face-image\" style=\"width: 200px;\" /><img src=\"materials/cfd/Images/CFD/BM-001/CFD-BM-001-022-A.jpg\" class=\"face-image\" style=\"width: 200px;\" /></div>","response":"z","phase":"study","block":0,"target_id":"AM-211","target_gender":"M","target_race":"A","target_filename":"materials/cfd/Images/CFD/AM-211/CFD-AM-211-052-N.jpg","flanker_id":"BM-001","flanker_gender":"M","flanker_race":"B","flanker_emotion":"angry","flanker_filename":"materials/cfd/Images/CFD/BM-001/CFD-BM-001-022-A.jpg","trial_type":"html-keyboard-response","trial_index":75,"time_elapsed":234141,"internal_node_id":"0.0-75.0","condition":1,"key_mapping":2,"test_mode":false,"subject_id":"","study_id":"","session_id":"","timed_out":false,"correct_response":"z","correct":true},{"rt":null,"stimulus":"<span class=\"fixation-cross\">+</span>","response":null,"phase":"study","trial_part":"fixation","trial_type":"html-keyboard-response","trial_index":76,"time_elapsed":236157,"internal_node_id":"0.0-76.0","condition":1,"key_mapping":2,"test_mode":false,"subject_id":"","study_id":"","session_id":""},{"rt":1623,"stimulus":"<div class=\"flanker-display\" style=\"gap: 0px;\"><img src=\"materials/cfd/Images/CFD/WF-013/CFD-WF-013-015-A.jpg\" class=\"face-image\" style=\"width: 200px;\" /><img src=\"materials/cfd/Images/CFD/AM-252/CFD-AM-252-114-N.jpg\" class=\"face-image\" style=\"width: 200px;\" /><img src=\"materials/cfd/Images/CFD/WF-013/CFD-WF-013-015-A.jpg\" class=\"face-image\" style=\"width: 200px;\" /></div>","response":"z","phase":"study","block":0,"target_id":"AM-252","target_gender":"M","target_race":"A","target_filename":"materials/cfd/Images/CFD/AM-252/CFD-AM-252-114-N.jpg","flanker_id":"WF-013","flanker_gender":"F","flanker_race":"W","flanker_emotion":"angry","flanker_filename":"materials/cfd/Images/CFD/WF-013/CFD-WF-013-015-A.jpg","trial_type":"html-keyboard-response","trial_index":77,"time_elapsed":239172,"internal_node_id":"0.0-77.0","condition":1,"key_mapping":2,"test_mode":false,"subject_id":"","study_id":"","session_id":"","timed_out":false,"correct_response":"z","correct":true},{"rt":null,"stimulus":"<span class=\"fixation-cross\">+</span>","response":null,"phase":"study","trial_part":"fixation","trial_type":"html-keyboard-response","trial_index":78,"time_elapsed":241186,"internal_node_id":"0.0-78.0","condition":1,"key_mapping":2,"test_mode":false,"subject_id":"","study_id":"","session_id":""},{"rt":1198,"stimulus":"<div class=\"flanker-display\" style=\"gap: 0px;\"><img src=\"materials/cfd/Images/CFD/BF-014/CFD-BF-014-004-HO.jpg\" class=\"face-image\" style=\"width: 200px;\" /><img src=\"materials/cfd/Images/CFD/AF-221/CFD-AF-221-147-N.jpg\" class=\"face-image\" style=\"width: 200px;\" /><img src=\"materials/cfd/Images/CFD/BF-014/CFD-BF-014-004-HO.jpg\" class=\"face-image\" style=\"width: 200px;\" /></div>","response":"m","phase":"study","block":0,"target_id":"AF-221","target_gender":"F","target_race":"A","target_filename":"materials/cfd/Images/CFD/AF-221/CFD-AF-221-147-N.jpg","flanker_id":"BF-014","flanker_gender":"F","flanker_race":"B","flanker_emotion":"happy","flanker_filename":"materials/cfd/Images/CFD/BF-014/CFD-BF-014-004-HO.jpg","trial_type":"html-keyboard-response","trial_index":79,"time_elapsed":244188,"internal_node_id":"0.0-79.0","condition":1,"key_mapping":2,"test_mode":false,"subject_id":"","study_id":"","session_id":"","timed_out":false,"correct_response":"m","correct":true},{"rt":null,"stimulus":"<span class=\"fixation-cross\">+</span>","response":null,"phase":"study","trial_part":"fixation","trial_type":"html-keyboard-response","trial_index":80,"time_elapsed":246189,"internal_node_id":"0.0-80.0","condition":1,"key_mapping":2,"test_mode":false,"subject_id":"","study_id":"","session_id":""},{"rt":1485,"stimulus":"<div class=\"flanker-display\" style=\"gap: 0px;\"><img src=\"materials/cfd/Images/CFD/BM-211/CFD-BM-211-174-N.jpg\" class=\"face-image\" style=\"width: 200px;\" /><img src=\"materials/cfd/Images/CFD/AF-215/CFD-AF-215-70-N.jpg\" class=\"face-image\" style=\"width: 200px;\" /><img src=\"materials/cfd/Images/CFD/BM-211/CFD-BM-211-174-N.jpg\" class=\"face-image\" style=\"width: 200px;\" /></div>","response":"m","phase":"study","block":0,"target_id":"AF-215","target_gender":"F","target_race":"A","target_filename":"materials/cfd/Images/CFD/AF-215/CFD-AF-215-70-N.jpg","flanker_id":"BM-211","flanker_gender":"M","flanker_race":"B","flanker_emotion":"neutral","flanker_filename":"materials/cfd/Images/CFD/BM-211/CFD-BM-211-174-N.jpg","trial_type":"html-keyboard-response","trial_index":81,"time_elapsed":249196,"internal_node_id":"0.0-81.0","condition":1,"key_mapping":2,"test_mode":false,"subject_id":"","study_id":"","session_id":"","timed_out":false,"correct_response":"m","correct":true},{"rt":null,"stimulus":"<span class=\"fixation-cross\">+</span>","response":null,"phase":"study","trial_part":"fixation","trial_type":"html-keyboard-response","trial_index":82,"time_elapsed":251204,"internal_node_id":"0.0-82.0","condition":1,"key_mapping":2,"test_mode":false,"subject_id":"","study_id":"","session_id":""},{"rt":1541,"stimulus":"<div class=\"flanker-display\" style=\"gap: 0px;\"><img src=\"materials/cfd/Images/CFD/BF-254/CFD-BF-254-201-N.jpg\" class=\"face-image\" style=\"width: 200px;\" /><img src=\"materials/cfd/Images/CFD/WM-213/CFD-WM-213-076-N.jpg\" class=\"face-image\" style=\"width: 200px;\" /><img src=\"materials/cfd/Images/CFD/BF-254/CFD-BF-254-201-N.jpg\" class=\"face-image\" style=\"width: 200px;\" /></div>","response":"z","phase":"study","block":0,"target_id":"WM-213","target_gender":"M","target_race":"W","target_filename":"materials/cfd/Images/CFD/WM-213/CFD-WM-213-076-N.jpg","flanker_id":"BF-254","flanker_gender":"F","flanker_race":"B","flanker_emotion":"neutral","flanker_filename":"materials/cfd/Images/CFD/BF-254/CFD-BF-254-201-N.jpg","trial_type":"html-keyboard-response","trial_index":83,"time_elapsed":254220,"internal_node_id":"0.0-83.0","condition":1,"key_mapping":2,"test_mode":false,"subject_id":"","study_id":"","session_id":"","timed_out":false,"correct_response":"z","correct":true},{"rt":null,"stimulus":"<span class=\"fixation-cross\">+</span>","response":null,"phase":"study","trial_part":"fixation","trial_type":"html-keyboard-response","trial_index":84,"time_elapsed":256234,"internal_node_id":"0.0-84.0","condition":1,"key_mapping":2,"test_mode":false,"subject_id":"","study_id":"","session_id":""},{"rt":1399,"stimulus":"<div class=\"flanker-display\" style=\"gap: 0px;\"><img src=\"materials/cfd/Images/CFD/WF-021/CFD-WF-021-016-HO.jpg\" class=\"face-image\" style=\"width: 200px;\" /><img src=\"materials/cfd/Images/CFD/BM-004/CFD-BM-004-002-N.jpg\" class=\"face-image\" style=\"width: 200px;\" /><img src=\"materials/cfd/Images/CFD/WF-021/CFD-WF-021-016-HO.jpg\" class=\"face-image\" style=\"width: 200px;\" /></div>","response":"z","phase":"study","block":0,"target_id":"BM-004","target_gender":"M","target_race":"B","target_filename":"materials/cfd/Images/CFD/BM-004/CFD-BM-004-002-N.jpg","flanker_id":"WF-021","flanker_gender":"F","flanker_race":"W","flanker_emotion":"happy","flanker_filename":"materials/cfd/Images/CFD/WF-021/CFD-WF-021-016-HO.jpg","trial_type":"html-keyboard-response","trial_index":85,"time_elapsed":259248,"internal_node_id":"0.0-85.0","condition":1,"key_mapping":2,"test_mode":false,"subject_id":"","study_id":"","session_id":"","timed_out":false,"correct_response":"z","correct":true},{"rt":null,"stimulus":"<span class=\"fixation-cross\">+</span>","response":null,"phase":"study","trial_part":"fixation","trial_type":"html-keyboard-response","trial_index":86,"time_elapsed":261250,"internal_node_id":"0.0-86.0","condition":1,"key_mapping":2,"test_mode":false,"subject_id":"","study_id":"","session_id":""},{"rt":1312,"stimulus":"<div class=\"flanker-display\" style=\"gap: 0px;\"><img src=\"materials/cfd/Images/CFD/BF-030/CFD-BF-030-007-HO.jpg\" class=\"face-image\" style=\"width: 200px;\" /><img src=\"materials/cfd/Images/CFD/LF-251/CFD-LF-251-057-N.jpg\" class=\"face-image\" style=\"width: 200px;\" /><img src=\"materials/cfd/Images/CFD/BF-030/CFD-BF-030-007-HO.jpg\" class=\"face-image\" style=\"width: 200px;\" /></div>","response":"m","phase":"study","block":0,"target_id":"LF-251","target_gender":"F","target_race":"L","target_filename":"materials/cfd/Images/CFD/LF-251/CFD-LF-251-057-N.jpg","flanker_id":"BF-030","flanker_gender":"F","flanker_race":"B","flanker_emotion":"happy","flanker_filename":"materials/cfd/Images/CFD/BF-030/CFD-BF-030-007-HO.jpg","trial_type":"html-keyboard-response","trial_index":87,"time_elapsed":264257,"internal_node_id":"0.0-87.0","condition":1,"key_mapping":2,"test_mode":false,"subject_id":"","study_id":"","session_id":"","timed_out":false,"correct_response":"m","correct":true},{"rt":null,"stimulus":"<span class=\"fixation-cross\">+</span>","response":null,"phase":"study","trial_part":"fixation","trial_type":"html-keyboard-response","trial_index":88,"time_elapsed":266273,"internal_node_id":"0.0-88.0","condition":1,"key_mapping":2,"test_mode":false,"subject_id":"","study_id":"","session_id":""},{"rt":1203,"stimulus":"<div class=\"flanker-display\" style=\"gap: 0px;\"><img src=\"materials/cfd/Images/CFD/WM-026/CFD-WM-026-019-A.jpg\" class=\"face-image\" style=\"width: 200px;\" /><img src=\"materials/cfd/Images/CFD/WM-216/CFD-WM-216-061-N.jpg\" class=\"face-image\" style=\"width: 200px;\" /><img src=\"materials/cfd/Images/CFD/WM-026/CFD-WM-026-019-A.jpg\" class=\"face-image\" style=\"width: 200px;\" /></div>","response":"z","phase":"study","block":0,"target_id":"WM-216","target_gender":"M","target_race":"W","target_filename":"materials/cfd/Images/CFD/WM-216/CFD-WM-216-061-N.jpg","flanker_id":"WM-026","flanker_gender":"M","flanker_race":"W","flanker_emotion":"angry","flanker_filename":"materials/cfd/Images/CFD/WM-026/CFD-WM-026-019-A.jpg","trial_type":"html-keyboard-response","trial_index":89,"time_elapsed":269282,"internal_node_id":"0.0-89.0","condition":1,"key_mapping":2,"test_mode":false,"subject_id":"","study_id":"","session_id":"","timed_out":false,"correct_response":"z","correct":true},{"rt":null,"stimulus":"<span class=\"fixation-cross\">+</span>","response":null,"phase":"study","trial_part":"fixation","trial_type":"html-keyboard-response","trial_index":90,"time_elapsed":271286,"internal_node_id":"0.0-90.0","condition":1,"key_mapping":2,"test_mode":false,"subject_id":"","study_id":"","session_id":""},{"rt":1708,"stimulus":"<div class=\"flanker-display\" style=\"gap: 0px;\"><img src=\"materials/cfd/Images/CFD/BF-040/CFD-BF-040-051-A.jpg\" class=\"face-image\" style=\"width: 200px;\" /><img src=\"materials/cfd/Images/CFD/AF-252/CFD-AF-252-135-N.jpg\" class=\"face-image\" style=\"width: 200px;\" /><img src=\"materials/cfd/Images/CFD/BF-040/CFD-BF-040-051-A.jpg\" class=\"face-image\" style=\"width: 200px;\" /></div>","response":"m","phase":"study","block":0,"target_id":"AF-252","target_gender":"F","target_race":"A","target_filename":"materials/cfd/Images/CFD/AF-252/CFD-AF-252-135-N.jpg","flanker_id":"BF-040","flanker_gender":"F","flanker_race":"B","flanker_emotion":"angry","flanker_filename":"materials/cfd/Images/CFD/BF-040/CFD-BF-040-051-A.jpg","trial_type":"html-keyboard-response","trial_index":91,"time_elapsed":274300,"internal_node_id":"0.0-91.0","condition":1,"key_mapping":2,"test_mode":false,"subject_id":"","study_id":"","session_id":"","timed_out":false,"correct_response":"m","correct":true},{"rt":3608,"stimulus":"<h2>Rest Break</h2><p>You have completed block 1 of 3.</p><p>Take a short break if you need one.</p><p>Press any key to continue.</p>","response":" ","trial_type":"html-keyboard-response","trial_index":92,"time_elapsed":277909,"internal_node_id":"0.0-92.0","condition":1,"key_mapping":2,"test_mode":false,"subject_id":"","study_id":"","session_id":""},{"rt":null,"stimulus":"<span class=\"fixation-cross\">+</span>","response":null,"phase":"study","trial_part":"fixation","trial_type":"html-keyboard-response","trial_index":93,"time_elapsed":279918,"internal_node_id":"0.0-93.0","condition":1,"key_mapping":2,"test_mode":false,"subject_id":"","study_id":"","session_id":""},{"rt":1333,"stimulus":"<div class=\"flanker-display\" style=\"gap: 0px;\"><img src=\"materials/cfd/Images/CFD/BF-218/CFD-BF-218-207-N.jpg\" class=\"face-image\" style=\"width: 200px;\" /><img src=\"materials/cfd/Images/CFD/WM-212/CFD-WM-212-097-N.jpg\" class=\"face-image\" style=\"width: 200px;\" /><img src=\"materials/cfd/Images/CFD/BF-218/CFD-BF-218-207-N.jpg\" class=\"face-image\" style=\"width: 200px;\" /></div>","response":"z","phase":"study","block":1,"target_id":"WM-212","target_gender":"M","target_race":"W","target_filename":"materials/cfd/Images/CFD/WM-212/CFD-WM-212-097-N.jpg","flanker_id":"BF-218","flanker_gender":"F","flanker_race":"B","flanker_emotion":"neutral","flanker_filename":"materials/cfd/Images/CFD/BF-218/CFD-BF-218-207-N.jpg","trial_type":"html-keyboard-response","trial_index":94,"time_elapsed":282919,"internal_node_id":"0.0-94.0","condition":1,"key_mapping":2,"test_mode":false,"subject_id":"","study_id":"","session_id":"","timed_out":false,"correct_response":"z","correct":true},{"rt":null,"stimulus":"<span class=\"fixation-cross\">+</span>","response":null,"phase":"study","trial_part":"fixation","trial_type":"html-keyboard-response","trial_index":95,"time_elapsed":284922,"internal_node_id":"0.0-95.0","condition":1,"key_mapping":2,"test_mode":false,"subject_id":"","study_id":"","session_id":""},{"rt":1400,"stimulus":"<div class=\"flanker-display\" style=\"gap: 0px;\"><img src=\"materials/cfd/Images/CFD/BF-011/CFD-BF-011-004-HO.jpg\" class=\"face-image\" style=\"width: 200px;\" /><img src=\"materials/cfd/Images/CFD/BF-009/CFD-BF-009-002-N.jpg\" class=\"face-image\" style=\"width: 200px;\" /><img src=\"materials/cfd/Images/CFD/BF-011/CFD-BF-011-004-HO.jpg\" class=\"face-image\" style=\"width: 200px;\" /></div>","response":"m","phase":"study","block":1,"target_id":"BF-009","target_gender":"F","target_race":"B","target_filename":"materials/cfd/Images/CFD/BF-009/CFD-BF-009-002-N.jpg","flanker_id":"BF-011","flanker_gender":"F","flanker_race":"B","flanker_emotion":"happy","flanker_filename":"materials/cfd/Images/CFD/BF-011/CFD-BF-011-004-HO.jpg","trial_type":"html-keyboard-response","trial_index":96,"time_elapsed":287938,"internal_node_id":"0.0-96.0","condition":1,"key_mapping":2,"test_mode":false,"subject_id":"","study_id":"","session_id":"","timed_out":false,"correct_response":"m","correct":true},{"rt":null,"stimulus":"<span class=\"fixation-cross\">+</span>","response":null,"phase":"study","trial_part":"fixation","trial_type":"html-keyboard-response","trial_index":97,"time_elapsed":289946,"internal_node_id":"0.0-97.0","condition":1,"key_mapping":2,"test_mode":false,"subject_id":"","study_id":"","session_id":""},{"rt":1144,"stimulus":"<div class=\"flanker-display\" style=\"gap: 0px;\"><img src=\"materials/cfd/Images/CFD/BF-001/CFD-BF-001-025-N.jpg\" class=\"face-image\" style=\"width: 200px;\" /><img src=\"materials/cfd/Images/CFD/LF-221/CFD-LF-221-002-N.jpg\" class=\"face-image\" style=\"width: 200px;\" /><img src=\"materials/cfd/Images/CFD/BF-001/CFD-BF-001-025-N.jpg\" class=\"face-image\" style=\"width: 200px;\" /></div>","response":"m","phase":"study","block":1,"target_id":"LF-221","target_gender":"F","target_race":"L","target_filename":"materials/cfd/Images/CFD/LF-221/CFD-LF-221-002-N.jpg","flanker_id":"BF-001","flanker_gender":"F","flanker_race":"B","flanker_emotion":"neutral","flanker_filename":"materials/cfd/Images/CFD/BF-001/CFD-BF-001-025-N.jpg","trial_type":"html-keyboard-response","trial_index":98,"time_elapsed":292953,"internal_node_id":"0.0-98.0","condition":1,"key_mapping":2,"test_mode":false,"subject_id":"","study_id":"","session_id":"","timed_out":false,"correct_response":"m","correct":true},{"rt":null,"stimulus":"<span class=\"fixation-cross\">+</span>","response":null,"phase":"study","trial_part":"fixation","trial_type":"html-keyboard-response","trial_index":99,"time_elapsed":294968,"internal_node_id":"0.0-99.0","condition":1,"key_mapping":2,"test_mode":false,"subject_id":"","study_id":"","session_id":""},{"rt":2361,"stimulus":"<div class=\"flanker-display\" style=\"gap: 0px;\"><img src=\"materials/cfd/Images/CFD/WM-252/CFD-WM-252-224-N.jpg\" class=\"face-image\" style=\"width: 200px;\" /><img src=\"materials/cfd/Images/CFD/BF-020/CFD-BF-020-002-N.jpg\" class=\"face-image\" style=\"width: 200px;\" /><img src=\"materials/cfd/Images/CFD/WM-252/CFD-WM-252-224-N.jpg\" class=\"face-image\" style=\"width: 200px;\" /></div>","response":"m","phase":"study","block":1,"target_id":"BF-020","target_gender":"F","target_race":"B","target_filename":"materials/cfd/Images/CFD/BF-020/CFD-BF-020-002-N.jpg","flanker_id":"WM-252","flanker_gender":"M","flanker_race":"W","flanker_emotion":"neutral","flanker_filename":"materials/cfd/Images/CFD/WM-252/CFD-WM-252-224-N.jpg","trial_type":"html-keyboard-response","trial_index":100,"time_elapsed":297982,"internal_node_id":"0.0-100.0","condition":1,"key_mapping":2,"test_mode":false,"subject_id":"","study_id":"","session_id":"","timed_out":false,"correct_response":"m","correct":true},{"rt":null,"stimulus":"<span class=\"fixation-cross\">+</span>","response":null,"phase":"study","trial_part":"fixation","trial_type":"html-keyboard-response","trial_index":101,"time_elapsed":299987,"internal_node_id":"0.0-101.0","condition":1,"key_mapping":2,"test_mode":false,"subject_id":"","study_id":"","session_id":""},{"rt":902,"stimulus":"<div class=\"flanker-display\" style=\"gap: 0px;\"><img src=\"materials/cfd/Images/CFD/BM-201/CFD-BM-201-077-N.jpg\" class=\"face-image\" style=\"width: 200px;\" /><img src=\"materials/cfd/Images/CFD/BF-048/CFD-BF-048-002-N.jpg\" class=\"face-image\" style=\"width: 200px;\" /><img src=\"materials/cfd/Images/CFD/BM-201/CFD-BM-201-077-N.jpg\" class=\"face-image\" style=\"width: 200px;\" /></div>","response":"m","phase":"study","block":1,"target_id":"BF-048","target_gender":"F","target_race":"B","target_filename":"materials/cfd/Images/CFD/BF-048/CFD-BF-048-002-N.jpg","flanker_id":"BM-201","flanker_gender":"M","flanker_race":"B","flanker_emotion":"neutral","flanker_filename":"materials/cfd/Images/CFD/BM-201/CFD-BM-201-077-N.jpg","trial_type":"html-keyboard-response","trial_index":102,"time_elapsed":303002,"internal_node_id":"0.0-102.0","condition":1,"key_mapping":2,"test_mode":false,"subject_id":"","study_id":"","session_id":"","timed_out":false,"correct_response":"m","correct":true},{"rt":null,"stimulus":"<span class=\"fixation-cross\">+</span>","response":null,"phase":"study","trial_part":"fixation","trial_type":"html-keyboard-response","trial_index":103,"time_elapsed":305017,"internal_node_id":"0.0-103.0","condition":1,"key_mapping":2,"test_mode":false,"subject_id":"","study_id":"","session_id":""},{"rt":1374,"stimulus":"<div class=\"flanker-display\" style=\"gap: 0px;\"><img src=\"materials/cfd/Images/CFD/WF-242/CFD-WF-242-001-N.jpg\" class=\"face-image\" style=\"width: 200px;\" /><img src=\"materials/cfd/Images/CFD/AM-224/CFD-AM-224-126-N.jpg\" class=\"face-image\" style=\"width: 200px;\" /><img src=\"materials/cfd/Images/CFD/WF-242/CFD-WF-242-001-N.jpg\" class=\"face-image\" style=\"width: 200px;\" /></div>","response":"z","phase":"study","block":1,"target_id":"AM-224","target_gender":"M","target_race":"A","target_filename":"materials/cfd/Images/CFD/AM-224/CFD-AM-224-126-N.jpg","flanker_id":"WF-242","flanker_gender":"F","flanker_race":"W","flanker_emotion":"neutral","flanker_filename":"materials/cfd/Images/CFD/WF-242/CFD-WF-242-001-N.jpg","trial_type":"html-keyboard-response","trial_index":104,"time_elapsed":308019,"internal_node_id":"0.0-104.0","condition":1,"key_mapping":2,"test_mode":false,"subject_id":"","study_id":"","session_id":"","timed_out":false,"correct_response":"z","correct":true},{"rt":null,"stimulus":"<span class=\"fixation-cross\">+</span>","response":null,"phase":"study","trial_part":"fixation","trial_type":"html-keyboard-response","trial_index":105,"time_elapsed":310031,"internal_node_id":"0.0-105.0","condition":1,"key_mapping":2,"test_mode":false,"subject_id":"","study_id":"","session_id":""},{"rt":1716,"stimulus":"<div class=\"flanker-display\" style=\"gap: 0px;\"><img src=\"materials/cfd/Images/CFD/BF-245/CFD-BF-245-178-N.jpg\" class=\"face-image\" style=\"width: 200px;\" /><img src=\"materials/cfd/Images/CFD/BM-044/CFD-BM-044-001-N.jpg\" class=\"face-image\" style=\"width: 200px;\" /><img src=\"materials/cfd/Images/CFD/BF-245/CFD-BF-245-178-N.jpg\" class=\"face-image\" style=\"width: 200px;\" /></div>","response":"z","phase":"study","block":1,"target_id":"BM-044","target_gender":"M","target_race":"B","target_filename":"materials/cfd/Images/CFD/BM-044/CFD-BM-044-001-N.jpg","flanker_id":"BF-245","flanker_gender":"F","flanker_race":"B","flanker_emotion":"neutral","flanker_filename":"materials/cfd/Images/CFD/BF-245/CFD-BF-245-178-N.jpg","trial_type":"html-keyboard-response","trial_index":106,"time_elapsed":313035,"internal_node_id":"0.0-106.0","condition":1,"key_mapping":2,"test_mode":false,"subject_id":"","study_id":"","session_id":"","timed_out":false,"correct_response":"z","correct":true},{"rt":null,"stimulus":"<span class=\"fixation-cross\">+</span>","response":null,"phase":"study","trial_part":"fixation","trial_type":"html-keyboard-response","trial_index":107,"time_elapsed":315050,"internal_node_id":"0.0-107.0","condition":1,"key_mapping":2,"test_mode":false,"subject_id":"","study_id":"","session_id":""},{"rt":1346,"stimulus":"<div class=\"flanker-display\" style=\"gap: 0px;\"><img src=\"materials/cfd/Images/CFD/WM-240/CFD-WM-240-125-N.jpg\" class=\"face-image\" style=\"width: 200px;\" /><img src=\"materials/cfd/Images/CFD/BM-225/CFD-BM-225-154-N.jpg\" class=\"face-image\" style=\"width: 200px;\" /><img src=\"materials/cfd/Images/CFD/WM-240/CFD-WM-240-125-N.jpg\" class=\"face-image\" style=\"width: 200px;\" /></div>","response":"z","phase":"study","block":1,"target_id":"BM-225","target_gender":"M","target_race":"B","target_filename":"materials/cfd/Images/CFD/BM-225/CFD-BM-225-154-N.jpg","flanker_id":"WM-240","flanker_gender":"M","flanker_race":"W","flanker_emotion":"neutral","flanker_filename":"materials/cfd/Images/CFD/WM-240/CFD-WM-240-125-N.jpg","trial_type":"html-keyboard-response","trial_index":108,"time_elapsed":318063,"internal_node_id":"0.0-108.0","condition":1,"key_mapping":2,"test_mode":false,"subject_id":"","study_id":"","session_id":"","timed_out":false,"correct_response":"z","correct":true},{"rt":null,"stimulus":"<span class=\"fixation-cross\">+</span>","response":null,"phase":"study","trial_part":"fixation","trial_type":"html-keyboard-response","trial_index":109,"time_elapsed":320075,"internal_node_id":"0.0-109.0","condition":1,"key_mapping":2,"test_mode":false,"subject_id":"","study_id":"","session_id":""},{"rt":1113,"stimulus":"<div class=\"flanker-display\" style=\"gap: 0px;\"><img src=\"materials/cfd/Images/CFD/BM-018/CFD-BM-018-012-A.jpg\" class=\"face-image\" style=\"width: 200px;\" /><img src=\"materials/cfd/Images/CFD/AF-212/CFD-AF-212-097-N.jpg\" class=\"face-image\" style=\"width: 200px;\" /><img src=\"materials/cfd/Images/CFD/BM-018/CFD-BM-018-012-A.jpg\" class=\"face-image\" style=\"width: 200px;\" /></div>","response":"m","phase":"study","block":1,"target_id":"AF-212","target_gender":"F","target_race":"A","target_filename":"materials/cfd/Images/CFD/AF-212/CFD-AF-212-097-N.jpg","flanker_id":"BM-018","flanker_gender":"M","flanker_race":"B","flanker_emotion":"angry","flanker_filename":"materials/cfd/Images/CFD/BM-018/CFD-BM-018-012-A.jpg","trial_type":"html-keyboard-response","trial_index":110,"time_elapsed":323080,"internal_node_id":"0.0-110.0","condition":1,"key_mapping":2,"test_mode":false,"subject_id":"","study_id":"","session_id":"","timed_out":false,"correct_response":"m","correct":true},{"rt":null,"stimulus":"<span class=\"fixation-cross\">+</span>","response":null,"phase":"study","trial_part":"fixation","trial_type":"html-keyboard-response","trial_index":111,"time_elapsed":325090,"internal_node_id":"0.0-111.0","condition":1,"key_mapping":2,"test_mode":false,"subject_id":"","study_id":"","session_id":""},{"rt":1442,"stimulus":"<div class=\"flanker-display\" style=\"gap: 0px;\"><img src=\"materials/cfd/Images/CFD/WF-015/CFD-WF-015-022-HO.jpg\" class=\"face-image\" style=\"width: 200px;\" /><img src=\"materials/cfd/Images/CFD/BM-241/CFD-BM-241-235-N.jpg\" class=\"face-image\" style=\"width: 200px;\" /><img src=\"materials/cfd/Images/CFD/WF-015/CFD-WF-015-022-HO.jpg\" class=\"face-image\" style=\"width: 200px;\" /></div>","response":"z","phase":"study","block":1,"target_id":"BM-241","target_gender":"M","target_race":"B","target_filename":"materials/cfd/Images/CFD/BM-241/CFD-BM-241-235-N.jpg","flanker_id":"WF-015","flanker_gender":"F","flanker_race":"W","flanker_emotion":"happy","flanker_filename":"materials/cfd/Images/CFD/WF-015/CFD-WF-015-022-HO.jpg","trial_type":"html-keyboard-response","trial_index":112,"time_elapsed":328098,"internal_node_id":"0.0-112.0","condition":1,"key_mapping":2,"test_mode":false,"subject_id":"","study_id":"","session_id":"","timed_out":false,"correct_response":"z","correct":true},{"rt":null,"stimulus":"<span class=\"fixation-cross\">+</span>","response":null,"phase":"study","trial_part":"fixation","trial_type":"html-keyboard-response","trial_index":113,"time_elapsed":330109,"internal_node_id":"0.0-113.0","condition":1,"key_mapping":2,"test_mode":false,"subject_id":"","study_id":"","session_id":""},{"rt":1480,"stimulus":"<div class=\"flanker-display\" style=\"gap: 0px;\"><img src=\"materials/cfd/Images/CFD/BF-008/CFD-BF-008-003-HO.jpg\" class=\"face-image\" style=\"width: 200px;\" /><img src=\"materials/cfd/Images/CFD/WM-028/CFD-WM-028-003-N.jpg\" class=\"face-image\" style=\"width: 200px;\" /><img src=\"materials/cfd/Images/CFD/BF-008/CFD-BF-008-003-HO.jpg\" class=\"face-image\" style=\"width: 200px;\" /></div>","response":"z","phase":"study","block":1,"target_id":"WM-028","target_gender":"M","target_race":"W","target_filename":"materials/cfd/Images/CFD/WM-028/CFD-WM-028-003-N.jpg","flanker_id":"BF-008","flanker_gender":"F","flanker_race":"B","flanker_emotion":"happy","flanker_filename":"materials/cfd/Images/CFD/BF-008/CFD-BF-008-003-HO.jpg","trial_type":"html-keyboard-response","trial_index":114,"time_elapsed":333123,"internal_node_id":"0.0-114.0","condition":1,"key_mapping":2,"test_mode":false,"subject_id":"","study_id":"","session_id":"","timed_out":false,"correct_response":"z","correct":true},{"rt":null,"stimulus":"<span class=\"fixation-cross\">+</span>","response":null,"phase":"study","trial_part":"fixation","trial_type":"html-keyboard-response","trial_index":115,"time_elapsed":335124,"internal_node_id":"0.0-115.0","condition":1,"key_mapping":2,"test_mode":false,"subject_id":"","study_id":"","session_id":""},{"rt":2057,"stimulus":"<div class=\"flanker-display\" style=\"gap: 0px;\"><img src=\"materials/cfd/Images/CFD/BF-047/CFD-BF-047-046-A.jpg\" class=\"face-image\" style=\"width: 200px;\" /><img src=\"materials/cfd/Images/CFD/LM-238/CFD-LM-238-129-N.jpg\" class=\"face-image\" style=\"width: 200px;\" /><img src=\"materials/cfd/Images/CFD/BF-047/CFD-BF-047-046-A.jpg\" class=\"face-image\" style=\"width: 200px;\" /></div>","response":"z","phase":"study","block":1,"target_id":"LM-238","target_gender":"M","target_race":"L","target_filename":"materials/cfd/Images/CFD/LM-238/CFD-LM-238-129-N.jpg","flanker_id":"BF-047","flanker_gender":"F","flanker_race":"B","flanker_emotion":"angry","flanker_filename":"materials/cfd/Images/CFD/BF-047/CFD-BF-047-046-A.jpg","trial_type":"html-keyboard-response","trial_index":116,"time_elapsed":338137,"internal_node_id":"0.0-116.0","condition":1,"key_mapping":2,"test_mode":false,"subject_id":"","study_id":"","session_id":"","timed_out":false,"correct_response":"z","correct":true},{"rt":null,"stimulus":"<span class=\"fixation-cross\">+</span>","response":null,"phase":"study","trial_part":"fixation","trial_type":"html-keyboard-response","trial_index":117,"time_elapsed":340140,"internal_node_id":"0.0-117.0","condition":1,"key_mapping":2,"test_mode":false,"subject_id":"","study_id":"","session_id":""},{"rt":942,"stimulus":"<div class=\"flanker-display\" style=\"gap: 0px;\"><img src=\"materials/cfd/Images/CFD/WM-040/CFD-WM-040-007-A.jpg\" class=\"face-image\" style=\"width: 200px;\" /><img src=\"materials/cfd/Images/CFD/LF-210/CFD-LF-210-220-N.jpg\" class=\"face-image\" style=\"width: 200px;\" /><img src=\"materials/cfd/Images/CFD/WM-040/CFD-WM-040-007-A.jpg\" class=\"face-image\" style=\"width: 200px;\" /></div>","response":"m","phase":"study","block":1,"target_id":"LF-210","target_gender":"F","target_race":"L","target_filename":"materials/cfd/Images/CFD/LF-210/CFD-LF-210-220-N.jpg","flanker_id":"WM-040","flanker_gender":"M","flanker_race":"W","flanker_emotion":"angry","flanker_filename":"materials/cfd/Images/CFD/WM-040/CFD-WM-040-007-A.jpg","trial_type":"html-keyboard-response","trial_index":118,"time_elapsed":343157,"internal_node_id":"0.0-118.0","condition":1,"key_mapping":2,"test_mode":false,"subject_id":"","study_id":"","session_id":"","timed_out":false,"correct_response":"m","correct":true},{"rt":null,"stimulus":"<span class=\"fixation-cross\">+</span>","response":null,"phase":"study","trial_part":"fixation","trial_type":"html-keyboard-response","trial_index":119,"time_elapsed":345173,"internal_node_id":"0.0-119.0","condition":1,"key_mapping":2,"test_mode":false,"subject_id":"","study_id":"","session_id":""},{"rt":1678,"stimulus":"<div class=\"flanker-display\" style=\"gap: 0px;\"><img src=\"materials/cfd/Images/CFD/WM-037/CFD-WM-037-060-A.jpg\" class=\"face-image\" style=\"width: 200px;\" /><img src=\"materials/cfd/Images/CFD/LF-232/CFD-LF-232-199-N.jpg\" class=\"face-image\" style=\"width: 200px;\" /><img src=\"materials/cfd/Images/CFD/WM-037/CFD-WM-037-060-A.jpg\" class=\"face-image\" style=\"width: 200px;\" /></div>","response":"m","phase":"study","block":1,"target_id":"LF-232","target_gender":"F","target_race":"L","target_filename":"materials/cfd/Images/CFD/LF-232/CFD-LF-232-199-N.jpg","flanker_id":"WM-037","flanker_gender":"M","flanker_race":"W","flanker_emotion":"angry","flanker_filename":"materials/cfd/Images/CFD/WM-037/CFD-WM-037-060-A.jpg","trial_type":"html-keyboard-response","trial_index":120,"time_elapsed":348188,"internal_node_id":"0.0-120.0","condition":1,"key_mapping":2,"test_mode":false,"subject_id":"","study_id":"","session_id":"","timed_out":false,"correct_response":"m","correct":true},{"rt":null,"stimulus":"<span class=\"fixation-cross\">+</span>","response":null,"phase":"study","trial_part":"fixation","trial_type":"html-keyboard-response","trial_index":121,"time_elapsed":350203,"internal_node_id":"0.0-121.0","condition":1,"key_mapping":2,"test_mode":false,"subject_id":"","study_id":"","session_id":""},{"rt":1579,"stimulus":"<div class=\"flanker-display\" style=\"gap: 0px;\"><img src=\"materials/cfd/Images/CFD/BF-045/CFD-BF-045-003-N.jpg\" class=\"face-image\" style=\"width: 200px;\" /><img src=\"materials/cfd/Images/CFD/WM-215/CFD-WM-215-041-N.jpg\" class=\"face-image\" style=\"width: 200px;\" /><img src=\"materials/cfd/Images/CFD/BF-045/CFD-BF-045-003-N.jpg\" class=\"face-image\" style=\"width: 200px;\" /></div>","response":"z","phase":"study","block":1,"target_id":"WM-215","target_gender":"M","target_race":"W","target_filename":"materials/cfd/Images/CFD/WM-215/CFD-WM-215-041-N.jpg","flanker_id":"BF-045","flanker_gender":"F","flanker_race":"B","flanker_emotion":"neutral","flanker_filename":"materials/cfd/Images/CFD/BF-045/CFD-BF-045-003-N.jpg","trial_type":"html-keyboard-response","trial_index":122,"time_elapsed":353210,"internal_node_id":"0.0-122.0","condition":1,"key_mapping":2,"test_mode":false,"subject_id":"","study_id":"","session_id":"","timed_out":false,"correct_response":"z","correct":true},{"rt":null,"stimulus":"<span class=\"fixation-cross\">+</span>","response":null,"phase":"study","trial_part":"fixation","trial_type":"html-keyboard-response","trial_index":123,"time_elapsed":355218,"internal_node_id":"0.0-123.0","condition":1,"key_mapping":2,"test_mode":false,"subject_id":"","study_id":"","session_id":""},{"rt":1562,"stimulus":"<div class=\"flanker-display\" style=\"gap: 0px;\"><img src=\"materials/cfd/Images/CFD/BF-206/CFD-BF-206-143-N.jpg\" class=\"face-image\" style=\"width: 200px;\" /><img src=\"materials/cfd/Images/CFD/LM-208/CFD-LM-208-110-N.jpg\" class=\"face-image\" style=\"width: 200px;\" /><img src=\"materials/cfd/Images/CFD/BF-206/CFD-BF-206-143-N.jpg\" class=\"face-image\" style=\"width: 200px;\" /></div>","response":"z","phase":"study","block":1,"target_id":"LM-208","target_gender":"M","target_race":"L","target_filename":"materials/cfd/Images/CFD/LM-208/CFD-LM-208-110-N.jpg","flanker_id":"BF-206","flanker_gender":"F","flanker_race":"B","flanker_emotion":"neutral","flanker_filename":"materials/cfd/Images/CFD/BF-206/CFD-BF-206-143-N.jpg","trial_type":"html-keyboard-response","trial_index":124,"time_elapsed":358229,"internal_node_id":"0.0-124.0","condition":1,"key_mapping":2,"test_mode":false,"subject_id":"","study_id":"","session_id":"","timed_out":false,"correct_response":"z","correct":true},{"rt":null,"stimulus":"<span class=\"fixation-cross\">+</span>","response":null,"phase":"study","trial_part":"fixation","trial_type":"html-keyboard-response","trial_index":125,"time_elapsed":360231,"internal_node_id":"0.0-125.0","condition":1,"key_mapping":2,"test_mode":false,"subject_id":"","study_id":"","session_id":""},{"rt":1570,"stimulus":"<div class=\"flanker-display\" style=\"gap: 0px;\"><img src=\"materials/cfd/Images/CFD/BM-247/CFD-BM-247-240-N.jpg\" class=\"face-image\" style=\"width: 200px;\" /><img src=\"materials/cfd/Images/CFD/BM-005/CFD-BM-005-003-N.jpg\" class=\"face-image\" style=\"width: 200px;\" /><img src=\"materials/cfd/Images/CFD/BM-247/CFD-BM-247-240-N.jpg\" class=\"face-image\" style=\"width: 200px;\" /></div>","response":"z","phase":"study","block":1,"target_id":"BM-005","target_gender":"M","target_race":"B","target_filename":"materials/cfd/Images/CFD/BM-005/CFD-BM-005-003-N.jpg","flanker_id":"BM-247","flanker_gender":"M","flanker_race":"B","flanker_emotion":"neutral","flanker_filename":"materials/cfd/Images/CFD/BM-247/CFD-BM-247-240-N.jpg","trial_type":"html-keyboard-response","trial_index":126,"time_elapsed":363235,"internal_node_id":"0.0-126.0","condition":1,"key_mapping":2,"test_mode":false,"subject_id":"","study_id":"","session_id":"","timed_out":false,"correct_response":"z","correct":true},{"rt":null,"stimulus":"<span class=\"fixation-cross\">+</span>","response":null,"phase":"study","trial_part":"fixation","trial_type":"html-keyboard-response","trial_index":127,"time_elapsed":365250,"internal_node_id":"0.0-127.0","condition":1,"key_mapping":2,"test_mode":false,"subject_id":"","study_id":"","session_id":""},{"rt":896,"stimulus":"<div class=\"flanker-display\" style=\"gap: 0px;\"><img src=\"materials/cfd/Images/CFD/BM-002/CFD-BM-002-007-HO.jpg\" class=\"face-image\" style=\"width: 200px;\" /><img src=\"materials/cfd/Images/CFD/BF-226/CFD-BF-226-119-N.jpg\" class=\"face-image\" style=\"width: 200px;\" /><img src=\"materials/cfd/Images/CFD/BM-002/CFD-BM-002-007-HO.jpg\" class=\"face-image\" style=\"width: 200px;\" /></div>","response":"m","phase":"study","block":1,"target_id":"BF-226","target_gender":"F","target_race":"B","target_filename":"materials/cfd/Images/CFD/BF-226/CFD-BF-226-119-N.jpg","flanker_id":"BM-002","flanker_gender":"M","flanker_race":"B","flanker_emotion":"happy","flanker_filename":"materials/cfd/Images/CFD/BM-002/CFD-BM-002-007-HO.jpg","trial_type":"html-keyboard-response","trial_index":128,"time_elapsed":368266,"internal_node_id":"0.0-128.0","condition":1,"key_mapping":2,"test_mode":false,"subject_id":"","study_id":"","session_id":"","timed_out":false,"correct_response":"m","correct":true},{"rt":null,"stimulus":"<span class=\"fixation-cross\">+</span>","response":null,"phase":"study","trial_part":"fixation","trial_type":"html-keyboard-response","trial_index":129,"time_elapsed":370277,"internal_node_id":"0.0-129.0","condition":1,"key_mapping":2,"test_mode":false,"subject_id":"","study_id":"","session_id":""},{"rt":1018,"stimulus":"<div class=\"flanker-display\" style=\"gap: 0px;\"><img src=\"materials/cfd/Images/CFD/BF-028/CFD-BF-028-021-A.jpg\" class=\"face-image\" style=\"width: 200px;\" /><img src=\"materials/cfd/Images/CFD/WM-220/CFD-WM-220-068-N.jpg\" class=\"face-image\" style=\"width: 200px;\" /><img src=\"materials/cfd/Images/CFD/BF-028/CFD-BF-028-021-A.jpg\" class=\"face-image\" style=\"width: 200px;\" /></div>","response":"z","phase":"study","block":1,"target_id":"WM-220","target_gender":"M","target_race":"W","target_filename":"materials/cfd/Images/CFD/WM-220/CFD-WM-220-068-N.jpg","flanker_id":"BF-028","flanker_gender":"F","flanker_race":"B","flanker_emotion":"angry","flanker_filename":"materials/cfd/Images/CFD/BF-028/CFD-BF-028-021-A.jpg","trial_type":"html-keyboard-response","trial_index":130,"time_elapsed":373283,"internal_node_id":"0.0-130.0","condition":1,"key_mapping":2,"test_mode":false,"subject_id":"","study_id":"","session_id":"","timed_out":false,"correct_response":"z","correct":true},{"rt":null,"stimulus":"<span class=\"fixation-cross\">+</span>","response":null,"phase":"study","trial_part":"fixation","trial_type":"html-keyboard-response","trial_index":131,"time_elapsed":375298,"internal_node_id":"0.0-131.0","condition":1,"key_mapping":2,"test_mode":false,"subject_id":"","study_id":"","session_id":""},{"rt":1142,"stimulus":"<div class=\"flanker-display\" style=\"gap: 0px;\"><img src=\"materials/cfd/Images/CFD/WM-025/CFD-WM-025-008-A.jpg\" class=\"face-image\" style=\"width: 200px;\" /><img src=\"materials/cfd/Images/CFD/AM-218/CFD-AM-218-085-N.jpg\" class=\"face-image\" style=\"width: 200px;\" /><img src=\"materials/cfd/Images/CFD/WM-025/CFD-WM-025-008-A.jpg\" class=\"face-image\" style=\"width: 200px;\" /></div>","response":"z","phase":"study","block":1,"target_id":"AM-218","target_gender":"M","target_race":"A","target_filename":"materials/cfd/Images/CFD/AM-218/CFD-AM-218-085-N.jpg","flanker_id":"WM-025","flanker_gender":"M","flanker_race":"W","flanker_emotion":"angry","flanker_filename":"materials/cfd/Images/CFD/WM-025/CFD-WM-025-008-A.jpg","trial_type":"html-keyboard-response","trial_index":132,"time_elapsed":378304,"internal_node_id":"0.0-132.0","condition":1,"key_mapping":2,"test_mode":false,"subject_id":"","study_id":"","session_id":"","timed_out":false,"correct_response":"z","correct":true},{"rt":null,"stimulus":"<span class=\"fixation-cross\">+</span>","response":null,"phase":"study","trial_part":"fixation","trial_type":"html-keyboard-response","trial_index":133,"time_elapsed":380306,"internal_node_id":"0.0-133.0","condition":1,"key_mapping":2,"test_mode":false,"subject_id":"","study_id":"","session_id":""},{"rt":785,"stimulus":"<div class=\"flanker-display\" style=\"gap: 0px;\"><img src=\"materials/cfd/Images/CFD/BF-050/CFD-BF-050-004-HO.jpg\" class=\"face-image\" style=\"width: 200px;\" /><img src=\"materials/cfd/Images/CFD/AM-205/CFD-AM-205-153-N.jpg\" class=\"face-image\" style=\"width: 200px;\" /><img src=\"materials/cfd/Images/CFD/BF-050/CFD-BF-050-004-HO.jpg\" class=\"face-image\" style=\"width: 200px;\" /></div>","response":"z","phase":"study","block":1,"target_id":"AM-205","target_gender":"M","target_race":"A","target_filename":"materials/cfd/Images/CFD/AM-205/CFD-AM-205-153-N.jpg","flanker_id":"BF-050","flanker_gender":"F","flanker_race":"B","flanker_emotion":"happy","flanker_filename":"materials/cfd/Images/CFD/BF-050/CFD-BF-050-004-HO.jpg","trial_type":"html-keyboard-response","trial_index":134,"time_elapsed":383317,"internal_node_id":"0.0-134.0","condition":1,"key_mapping":2,"test_mode":false,"subject_id":"","study_id":"","session_id":"","timed_out":false,"correct_response":"z","correct":true},{"rt":null,"stimulus":"<span class=\"fixation-cross\">+</span>","response":null,"phase":"study","trial_part":"fixation","trial_type":"html-keyboard-response","trial_index":135,"time_elapsed":385329,"internal_node_id":"0.0-135.0","condition":1,"key_mapping":2,"test_mode":false,"subject_id":"","study_id":"","session_id":""},{"rt":730,"stimulus":"<div class=\"flanker-display\" style=\"gap: 0px;\"><img src=\"materials/cfd/Images/CFD/WF-018/CFD-WF-018-012-A.jpg\" class=\"face-image\" style=\"width: 200px;\" /><img src=\"materials/cfd/Images/CFD/AM-223/CFD-AM-223-138-N.jpg\" class=\"face-image\" style=\"width: 200px;\" /><img src=\"materials/cfd/Images/CFD/WF-018/CFD-WF-018-012-A.jpg\" class=\"face-image\" style=\"width: 200px;\" /></div>","response":"z","phase":"study","block":1,"target_id":"AM-223","target_gender":"M","target_race":"A","target_filename":"materials/cfd/Images/CFD/AM-223/CFD-AM-223-138-N.jpg","flanker_id":"WF-018","flanker_gender":"F","flanker_race":"W","flanker_emotion":"angry","flanker_filename":"materials/cfd/Images/CFD/WF-018/CFD-WF-018-012-A.jpg","trial_type":"html-keyboard-response","trial_index":136,"time_elapsed":388331,"internal_node_id":"0.0-136.0","condition":1,"key_mapping":2,"test_mode":false,"subject_id":"","study_id":"","session_id":"","timed_out":false,"correct_response":"z","correct":true},{"rt":null,"stimulus":"<span class=\"fixation-cross\">+</span>","response":null,"phase":"study","trial_part":"fixation","trial_type":"html-keyboard-response","trial_index":137,"time_elapsed":390344,"internal_node_id":"0.0-137.0","condition":1,"key_mapping":2,"test_mode":false,"subject_id":"","study_id":"","session_id":""},{"rt":928,"stimulus":"<div class=\"flanker-display\" style=\"gap: 0px;\"><img src=\"materials/cfd/Images/CFD/BF-231/CFD-BF-231-202-N.jpg\" class=\"face-image\" style=\"width: 200px;\" /><img src=\"materials/cfd/Images/CFD/BF-025/CFD-BF-025-002-N.jpg\" class=\"face-image\" style=\"width: 200px;\" /><img src=\"materials/cfd/Images/CFD/BF-231/CFD-BF-231-202-N.jpg\" class=\"face-image\" style=\"width: 200px;\" /></div>","response":"m","phase":"study","block":1,"target_id":"BF-025","target_gender":"F","target_race":"B","target_filename":"materials/cfd/Images/CFD/BF-025/CFD-BF-025-002-N.jpg","flanker_id":"BF-231","flanker_gender":"F","flanker_race":"B","flanker_emotion":"neutral","flanker_filename":"materials/cfd/Images/CFD/BF-231/CFD-BF-231-202-N.jpg","trial_type":"html-keyboard-response","trial_index":138,"time_elapsed":393346,"internal_node_id":"0.0-138.0","condition":1,"key_mapping":2,"test_mode":false,"subject_id":"","study_id":"","session_id":"","timed_out":false,"correct_response":"m","correct":true},{"rt":null,"stimulus":"<span class=\"fixation-cross\">+</span>","response":null,"phase":"study","trial_part":"fixation","trial_type":"html-keyboard-response","trial_index":139,"time_elapsed":395359,"internal_node_id":"0.0-139.0","condition":1,"key_mapping":2,"test_mode":false,"subject_id":"","study_id":"","session_id":""},{"rt":1243,"stimulus":"<div class=\"flanker-display\" style=\"gap: 0px;\"><img src=\"materials/cfd/Images/CFD/BM-040/CFD-BM-040-013-A.jpg\" class=\"face-image\" style=\"width: 200px;\" /><img src=\"materials/cfd/Images/CFD/WF-202/CFD-WF-202-056-N.jpg\" class=\"face-image\" style=\"width: 200px;\" /><img src=\"materials/cfd/Images/CFD/BM-040/CFD-BM-040-013-A.jpg\" class=\"face-image\" style=\"width: 200px;\" /></div>","response":"m","phase":"study","block":1,"target_id":"WF-202","target_gender":"F","target_race":"W","target_filename":"materials/cfd/Images/CFD/WF-202/CFD-WF-202-056-N.jpg","flanker_id":"BM-040","flanker_gender":"M","flanker_race":"B","flanker_emotion":"angry","flanker_filename":"materials/cfd/Images/CFD/BM-040/CFD-BM-040-013-A.jpg","trial_type":"html-keyboard-response","trial_index":140,"time_elapsed":398371,"internal_node_id":"0.0-140.0","condition":1,"key_mapping":2,"test_mode":false,"subject_id":"","study_id":"","session_id":"","timed_out":false,"correct_response":"m","correct":true},{"rt":null,"stimulus":"<span class=\"fixation-cross\">+</span>","response":null,"phase":"study","trial_part":"fixation","trial_type":"html-keyboard-response","trial_index":141,"time_elapsed":400386,"internal_node_id":"0.0-141.0","condition":1,"key_mapping":2,"test_mode":false,"subject_id":"","study_id":"","session_id":""},{"rt":985,"stimulus":"<div class=\"flanker-display\" style=\"gap: 0px;\"><img src=\"materials/cfd/Images/CFD/WM-034/CFD-WM-034-040-A.jpg\" class=\"face-image\" style=\"width: 200px;\" /><img src=\"materials/cfd/Images/CFD/WF-244/CFD-WF-244-163-N.jpg\" class=\"face-image\" style=\"width: 200px;\" /><img src=\"materials/cfd/Images/CFD/WM-034/CFD-WM-034-040-A.jpg\" class=\"face-image\" style=\"width: 200px;\" /></div>","response":"m","phase":"study","block":1,"target_id":"WF-244","target_gender":"F","target_race":"W","target_filename":"materials/cfd/Images/CFD/WF-244/CFD-WF-244-163-N.jpg","flanker_id":"WM-034","flanker_gender":"M","flanker_race":"W","flanker_emotion":"angry","flanker_filename":"materials/cfd/Images/CFD/WM-034/CFD-WM-034-040-A.jpg","trial_type":"html-keyboard-response","trial_index":142,"time_elapsed":403387,"internal_node_id":"0.0-142.0","condition":1,"key_mapping":2,"test_mode":false,"subject_id":"","study_id":"","session_id":"","timed_out":false,"correct_response":"m","correct":true},{"rt":null,"stimulus":"<span class=\"fixation-cross\">+</span>","response":null,"phase":"study","trial_part":"fixation","trial_type":"html-keyboard-response","trial_index":143,"time_elapsed":405389,"internal_node_id":"0.0-143.0","condition":1,"key_mapping":2,"test_mode":false,"subject_id":"","study_id":"","session_id":""},{"rt":888,"stimulus":"<div class=\"flanker-display\" style=\"gap: 0px;\"><img src=\"materials/cfd/Images/CFD/WF-023/CFD-WF-023-020-HO.jpg\" class=\"face-image\" style=\"width: 200px;\" /><img src=\"materials/cfd/Images/CFD/WF-247/CFD-WF-247-065-N.jpg\" class=\"face-image\" style=\"width: 200px;\" /><img src=\"materials/cfd/Images/CFD/WF-023/CFD-WF-023-020-HO.jpg\" class=\"face-image\" style=\"width: 200px;\" /></div>","response":"m","phase":"study","block":1,"target_id":"WF-247","target_gender":"F","target_race":"W","target_filename":"materials/cfd/Images/CFD/WF-247/CFD-WF-247-065-N.jpg","flanker_id":"WF-023","flanker_gender":"F","flanker_race":"W","flanker_emotion":"happy","flanker_filename":"materials/cfd/Images/CFD/WF-023/CFD-WF-023-020-HO.jpg","trial_type":"html-keyboard-response","trial_index":144,"time_elapsed":408405,"internal_node_id":"0.0-144.0","condition":1,"key_mapping":2,"test_mode":false,"subject_id":"","study_id":"","session_id":"","timed_out":false,"correct_response":"m","correct":true},{"rt":null,"stimulus":"<span class=\"fixation-cross\">+</span>","response":null,"phase":"study","trial_part":"fixation","trial_type":"html-keyboard-response","trial_index":145,"time_elapsed":410419,"internal_node_id":"0.0-145.0","condition":1,"key_mapping":2,"test_mode":false,"subject_id":"","study_id":"","session_id":""},{"rt":787,"stimulus":"<div class=\"flanker-display\" style=\"gap: 0px;\"><img src=\"materials/cfd/Images/CFD/WM-032/CFD-WM-032-001-N.jpg\" class=\"face-image\" style=\"width: 200px;\" /><img src=\"materials/cfd/Images/CFD/WF-245/CFD-WF-245-084-N.jpg\" class=\"face-image\" style=\"width: 200px;\" /><img src=\"materials/cfd/Images/CFD/WM-032/CFD-WM-032-001-N.jpg\" class=\"face-image\" style=\"width: 200px;\" /></div>","response":"m","phase":"study","block":1,"target_id":"WF-245","target_gender":"F","target_race":"W","target_filename":"materials/cfd/Images/CFD/WF-245/CFD-WF-245-084-N.jpg","flanker_id":"WM-032","flanker_gender":"M","flanker_race":"W","flanker_emotion":"neutral","flanker_filename":"materials/cfd/Images/CFD/WM-032/CFD-WM-032-001-N.jpg","trial_type":"html-keyboard-response","trial_index":146,"time_elapsed":413423,"internal_node_id":"0.0-146.0","condition":1,"key_mapping":2,"test_mode":false,"subject_id":"","study_id":"","session_id":"","timed_out":false,"correct_response":"m","correct":true},{"rt":null,"stimulus":"<span class=\"fixation-cross\">+</span>","response":null,"phase":"study","trial_part":"fixation","trial_type":"html-keyboard-response","trial_index":147,"time_elapsed":415438,"internal_node_id":"0.0-147.0","condition":1,"key_mapping":2,"test_mode":false,"subject_id":"","study_id":"","session_id":""},{"rt":1186,"stimulus":"<div class=\"flanker-display\" style=\"gap: 0px;\"><img src=\"materials/cfd/Images/CFD/BF-010/CFD-BF-010-003-HO.jpg\" class=\"face-image\" style=\"width: 200px;\" /><img src=\"materials/cfd/Images/CFD/BM-236/CFD-BM-236-248-N.jpg\" class=\"face-image\" style=\"width: 200px;\" /><img src=\"materials/cfd/Images/CFD/BF-010/CFD-BF-010-003-HO.jpg\" class=\"face-image\" style=\"width: 200px;\" /></div>","response":"z","phase":"study","block":1,"target_id":"BM-236","target_gender":"M","target_race":"B","target_filename":"materials/cfd/Images/CFD/BM-236/CFD-BM-236-248-N.jpg","flanker_id":"BF-010","flanker_gender":"F","flanker_race":"B","flanker_emotion":"happy","flanker_filename":"materials/cfd/Images/CFD/BF-010/CFD-BF-010-003-HO.jpg","trial_type":"html-keyboard-response","trial_index":148,"time_elapsed":418444,"internal_node_id":"0.0-148.0","condition":1,"key_mapping":2,"test_mode":false,"subject_id":"","study_id":"","session_id":"","timed_out":false,"correct_response":"z","correct":true},{"rt":null,"stimulus":"<span class=\"fixation-cross\">+</span>","response":null,"phase":"study","trial_part":"fixation","trial_type":"html-keyboard-response","trial_index":149,"time_elapsed":420448,"internal_node_id":"0.0-149.0","condition":1,"key_mapping":2,"test_mode":false,"subject_id":"","study_id":"","session_id":""},{"rt":942,"stimulus":"<div class=\"flanker-display\" style=\"gap: 0px;\"><img src=\"materials/cfd/Images/CFD/BF-007/CFD-BF-007-013-A.jpg\" class=\"face-image\" style=\"width: 200px;\" /><img src=\"materials/cfd/Images/CFD/AF-248/CFD-AF-248-148-N.jpg\" class=\"face-image\" style=\"width: 200px;\" /><img src=\"materials/cfd/Images/CFD/BF-007/CFD-BF-007-013-A.jpg\" class=\"face-image\" style=\"width: 200px;\" /></div>","response":"m","phase":"study","block":1,"target_id":"AF-248","target_gender":"F","target_race":"A","target_filename":"materials/cfd/Images/CFD/AF-248/CFD-AF-248-148-N.jpg","flanker_id":"BF-007","flanker_gender":"F","flanker_race":"B","flanker_emotion":"angry","flanker_filename":"materials/cfd/Images/CFD/BF-007/CFD-BF-007-013-A.jpg","trial_type":"html-keyboard-response","trial_index":150,"time_elapsed":423459,"internal_node_id":"0.0-150.0","condition":1,"key_mapping":2,"test_mode":false,"subject_id":"","study_id":"","session_id":"","timed_out":false,"correct_response":"m","correct":true},{"rt":null,"stimulus":"<span class=\"fixation-cross\">+</span>","response":null,"phase":"study","trial_part":"fixation","trial_type":"html-keyboard-response","trial_index":151,"time_elapsed":425472,"internal_node_id":"0.0-151.0","condition":1,"key_mapping":2,"test_mode":false,"subject_id":"","study_id":"","session_id":""},{"rt":1398,"stimulus":"<div class=\"flanker-display\" style=\"gap: 0px;\"><img src=\"materials/cfd/Images/CFD/BF-017/CFD-BF-017-003-N.jpg\" class=\"face-image\" style=\"width: 200px;\" /><img src=\"materials/cfd/Images/CFD/LM-247/CFD-LM-247-095-N.jpg\" class=\"face-image